{"TrialNumber":1,"ImageIndexNumber":7,"ImageName":"04_CmANo","TimeOut":false,"TimeStampBegin":1632408983.8179987,"TimeStampEnd":1632408990.0244475,"RT":6.206448793411255,"Angle":29.886859893798829,"TriggerPressedFreq":2,"CancelPressedFreq":0,"PhotoToCenterFreq":0,"TriggerPressedTimeStamps":[1632408989.2859035],"CancelPressedTimeStamps":[],"PhotoToCenterTimeStamps":[],"PhotoReleasedTimeStamps":[],"ParticipantPosition":{"x":366.7449035644531,"y":-0.3704080581665039,"z":109.23184204101563},"ParticipantRotation":{"x":-0.07126031816005707,"y":0.003916722256690264,"z":-0.021336933597922326,"w":0.9972218871116638},"PointerPosition":{"x":366.5088195800781,"y":-0.9210683107376099,"z":109.05381774902344},"PointerRotation":{"x":354.0500183105469,"y":226.84429931640626,"z":4.661587715148926},"PointerRotationQuaternion":{"x":-0.057880766689777377,"y":-0.9147672057151794,"z":-0.03143991902470589,"w":0.3985753357410431},"PointerDirection":{"x":-0.7255677580833435,"y":0.10366010665893555,"z":-0.680298388004303},"TargetBuildingName":"TaskBuilding_47","TargetBuildingPosition":{"x":-189.70550537109376,"y":2.2158985137939455,"z":-22.110198974609376},"TargetBuildingRotation":{"x":-0.6523874402046204,"y":-0.27274665236473086,"z":-0.27274659276008608,"w":0.6523873209953308},"TargetBuildingForward":{"x":-2.9802322387695315e-8,"y":1.0,"z":-2.384185791015625e-7},"DistanceToParticipant":571.7504272460938,"PointedDirections":[{"x":-0.7255677580833435,"y":0.10366010665893555,"z":-0.680298388004303}]},
{"TrialNumber":2,"ImageIndexNumber":34,"ImageName":"18_CmA","TimeOut":false,"TimeStampBegin":1632408990.2972484,"TimeStampEnd":1632408994.7116483,"RT":4.414399862289429,"Angle":69.43492889404297,"TriggerPressedFreq":2,"CancelPressedFreq":0,"PhotoToCenterFreq":0,"TriggerPressedTimeStamps":[1632408994.3118735],"CancelPressedTimeStamps":[],"PhotoToCenterTimeStamps":[],"PhotoReleasedTimeStamps":[],"ParticipantPosition":{"x":366.72308349609377,"y":-0.36880040168762209,"z":109.10279846191406},"ParticipantRotation":{"x":0.04691499099135399,"y":0.8916828632354736,"z":0.0748811811208725,"w":-0.44395214319229128},"PointerPosition":{"x":366.75677490234377,"y":-0.9260759353637695,"z":109.47254180908203},"PointerRotation":{"x":354.54827880859377,"y":354.4579772949219,"z":8.225456237792969},"PointerRotationQuaternion":{"x":-0.050842542201280597,"y":-0.04475870728492737,"z":0.06926089525222779,"w":0.9952962398529053},"PointerDirection":{"x":-0.09613914787769318,"y":0.09500672668218613,"z":0.9908233880996704},"TargetBuildingName":"TaskBuilding_38","TargetBuildingPosition":{"x":-70.73757934570313,"y":0.000030517578125,"z":226.8873291015625},"TargetBuildingRotation":{"x":5.960464477539063e-8,"y":0.530316948890686,"z":-2.9802322387695315e-8,"w":0.8477994799613953},"TargetBuildingForward":{"x":0.8992048501968384,"y":-1.3267492704471807e-7,"z":0.4375278949737549},"DistanceToParticipant":453.0307312011719,"PointedDirections":[{"x":-0.09613914787769318,"y":0.09500672668218613,"z":0.9908233880996704}]},
{"TrialNumber":3,"ImageIndexNumber":88,"ImageName":"45_Sa","TimeOut":false,"TimeStampBegin":1632408994.9780007,"TimeStampEnd":1632408999.4548979,"RT":4.476897239685059,"Angle":22.530860900878908,"TriggerPressedFreq":2,"CancelPressedFreq":0,"PhotoToCenterFreq":0,"TriggerPressedTimeStamps":[1632408998.9519535],"CancelPressedTimeStamps":[],"PhotoToCenterTimeStamps":[],"PhotoReleasedTimeStamps":[],"ParticipantPosition":{"x":366.71026611328127,"y":-0.3693108558654785,"z":109.1990966796875},"ParticipantRotation":{"x":-0.07779577374458313,"y":-0.09908823668956757,"z":-0.013926615938544274,"w":0.9919351935386658},"PointerPosition":{"x":366.51348876953127,"y":-0.9213812351226807,"z":109.0354995727539},"PointerRotation":{"x":359.78155517578127,"y":222.9780731201172,"z":2.3508665561676027},"PointerRotationQuaternion":{"x":-0.019785936921834947,"y":-0.9302758574485779,"z":0.005741199012845755,"w":0.36628177762031557},"PointerDirection":{"x":-0.6817134022712708,"y":0.0038126586005091669,"z":-0.7316093444824219},"TargetBuildingName":"TaskBuilding_33","TargetBuildingPosition":{"x":-7.537855625152588,"y":-2.005443572998047,"z":-61.35914993286133},"TargetBuildingRotation":{"x":2.9802322387695315e-8,"y":-0.35620027780532839,"z":4.470348358154297e-8,"w":0.9344096183776856},"TargetBuildingForward":{"x":-0.6656739115715027,"y":-8.754194169569019e-8,"z":0.7462427020072937},"DistanceToParticipant":411.3183898925781,"PointedDirections":[{"x":-0.6817134022712708,"y":0.0038126586005091669,"z":-0.7316093444824219}]},
{"TrialNumber":4,"ImageIndexNumber":13,"ImageName":"07_CmANo","TimeOut":false,"TimeStampBegin":1632408999.730674,"TimeStampEnd":1632409003.6451059,"RT":3.9144318103790285,"Angle":102.20091247558594,"TriggerPressedFreq":2,"CancelPressedFreq":0,"PhotoToCenterFreq":0,"TriggerPressedTimeStamps":[1632409003.1788665],"CancelPressedTimeStamps":[],"PhotoToCenterTimeStamps":[],"PhotoReleasedTimeStamps":[],"ParticipantPosition":{"x":366.7071228027344,"y":-0.36874818801879885,"z":109.09640502929688},"ParticipantRotation":{"x":0.03030519373714924,"y":0.8800607919692993,"z":0.0756964385509491,"w":-0.4678083658218384},"PointerPosition":{"x":366.56036376953127,"y":-0.9200619459152222,"z":109.34297180175781},"PointerRotation":{"x":359.86993408203127,"y":296.3065490722656,"z":7.0485992431640629},"PointerRotationQuaternion":{"x":-0.03339788690209389,"y":-0.5265913009643555,"z":0.051620230078697208,"w":0.8478924036026001},"PointerDirection":{"x":-0.8964335322380066,"y":0.0022701025009155275,"z":0.4431723952293396},"TargetBuildingName":"TaskBuilding_9","TargetBuildingPosition":{"x":375.8138122558594,"y":-2.2880401611328127,"z":120.9730453491211},"TargetBuildingRotation":{"x":-4.470348358154297e-8,"y":0.9363456964492798,"z":-2.682209014892578e-7,"w":-0.3510795831680298},"TargetBuildingForward":{"x":-0.6574637293815613,"y":-5.336839308256458e-7,"z":-0.7534865140914917},"DistanceToParticipant":14.849893569946289,"PointedDirections":[{"x":-0.8964335322380066,"y":0.0022701025009155275,"z":0.4431723952293396}]},
{"TrialNumber":5,"ImageIndexNumber":9,"ImageName":"05_CmANo","TimeOut":false,"TimeStampBegin":1632409003.9198905,"TimeStampEnd":1632409011.074692,"RT":7.154801607131958,"Angle":51.691951751708987,"TriggerPressedFreq":2,"CancelPressedFreq":0,"PhotoToCenterFreq":0,"TriggerPressedTimeStamps":[1632409010.659044],"CancelPressedTimeStamps":[],"PhotoToCenterTimeStamps":[],"PhotoReleasedTimeStamps":[],"ParticipantPosition":{"x":366.6867370605469,"y":-0.36338698863983157,"z":109.16484832763672},"ParticipantRotation":{"x":-0.08325644582509995,"y":-0.4574139416217804,"z":-0.055332083255052569,"w":0.8836171627044678},"PointerPosition":{"x":366.5701904296875,"y":-0.9051439762115479,"z":109.35540771484375},"PointerRotation":{"x":357.60772705078127,"y":304.4474182128906,"z":7.306990146636963},"PointerRotationQuaternion":{"x":-0.04812157154083252,"y":-0.4637952446937561,"z":0.046659134328365329,"w":0.8834032416343689},"PointerDirection":{"x":-0.8239270448684692,"y":0.041740935295820239,"z":0.5651565790176392},"TargetBuildingName":"Construction_57","TargetBuildingPosition":{"x":-71.80340576171875,"y":0.5511384606361389,"z":-26.717416763305665},"TargetBuildingRotation":{"x":-0.6383030414581299,"y":-0.3042520582675934,"z":-0.30425211787223818,"w":0.6383029222488403},"TargetBuildingForward":{"x":1.4901161193847657e-7,"y":1.0000001192092896,"z":-1.6391277313232423e-7},"DistanceToParticipant":459.13751220703127,"PointedDirections":[{"x":-0.8239270448684692,"y":0.041740935295820239,"z":0.5651565790176392}]},
{"TrialNumber":6,"ImageIndexNumber":4,"ImageName":"03_CmA","TimeOut":false,"TimeStampBegin":1632409011.3519555,"TimeStampEnd":1632409015.469748,"RT":4.11779260635376,"Angle":73.80184173583985,"TriggerPressedFreq":2,"CancelPressedFreq":0,"PhotoToCenterFreq":0,"TriggerPressedTimeStamps":[1632409014.7574919],"CancelPressedTimeStamps":[],"PhotoToCenterTimeStamps":[],"PhotoReleasedTimeStamps":[],"ParticipantPosition":{"x":366.70086669921877,"y":-0.36184704303741457,"z":109.16815185546875},"ParticipantRotation":{"x":-0.09939330071210861,"y":-0.41577598452568056,"z":-0.050865065306425098,"w":0.9025874137878418},"PointerPosition":{"x":366.8971862792969,"y":-0.9080314636230469,"z":109.40412139892578},"PointerRotation":{"x":357.1213684082031,"y":20.17510986328125,"z":7.301368236541748},"PointerRotationQuaternion":{"x":-0.013530545867979527,"y":0.17631694674491883,"z":0.06705983728170395,"w":0.9819532632827759},"PointerDirection":{"x":0.3444552719593048,"y":0.050220295786857608,"z":0.9374585151672363},"TargetBuildingName":"TaskBuilding_2","TargetBuildingPosition":{"x":197.39566040039063,"y":-2.95098876953125,"z":234.24940490722657},"TargetBuildingRotation":{"x":1.1175870895385743e-8,"y":0.9974239468574524,"z":-3.5762786865234377e-7,"w":0.07173161208629608},"TargetBuildingForward":{"x":0.14309366047382356,"y":-7.150165401981212e-7,"z":-0.9897090196609497},"DistanceToParticipant":210.50157165527345,"PointedDirections":[{"x":0.3444552719593048,"y":0.050220295786857608,"z":0.9374585151672363}]},
{"TrialNumber":7,"ImageIndexNumber":2,"ImageName":"02_CmA","TimeOut":false,"TimeStampBegin":1632409015.7365957,"TimeStampEnd":1632409021.8334299,"RT":6.096834182739258,"Angle":167.558837890625,"TriggerPressedFreq":2,"CancelPressedFreq":0,"PhotoToCenterFreq":0,"TriggerPressedTimeStamps":[1632409020.0448523],"CancelPressedTimeStamps":[],"PhotoToCenterTimeStamps":[],"PhotoReleasedTimeStamps":[],"ParticipantPosition":{"x":366.74237060546877,"y":-0.36602187156677248,"z":109.21077728271485},"ParticipantRotation":{"x":-0.09562812745571137,"y":0.1550208181142807,"z":0.0026767405215650799,"w":0.9832683801651001},"PointerPosition":{"x":367.04949951171877,"y":-0.913413405418396,"z":109.07257080078125},"PointerRotation":{"x":358.2965393066406,"y":97.23601531982422,"z":8.5820951461792},"PointerRotationQuaternion":{"x":0.04633545130491257,"y":0.7488682270050049,"z":0.060580458492040637,"w":0.6583155989646912},"PointerDirection":{"x":0.9915972948074341,"y":0.02972685545682907,"z":-0.12590113282203675},"TargetBuildingName":"TaskBuilding_41","TargetBuildingPosition":{"x":-142.43019104003907,"y":2.1282005310058595,"z":62.66016387939453},"TargetBuildingRotation":{"x":-2.9802322387695315e-8,"y":-0.3801337778568268,"z":5.960464477539063e-8,"w":0.924931526184082},"TargetBuildingForward":{"x":-0.7031954526901245,"y":9.8147374671953e-9,"z":0.7109966278076172},"DistanceToParticipant":511.3123474121094,"PointedDirections":[{"x":0.9915972948074341,"y":0.02972685545682907,"z":-0.12590113282203675}]},
{"TrialNumber":8,"ImageIndexNumber":5,"ImageName":"03_CmANo","TimeOut":false,"TimeStampBegin":1632409022.1002775,"TimeStampEnd":1632409031.6443105,"RT":9.54403305053711,"Angle":49.00770568847656,"TriggerPressedFreq":2,"CancelPressedFreq":0,"PhotoToCenterFreq":0,"TriggerPressedTimeStamps":[1632409030.1989663],"CancelPressedTimeStamps":[],"PhotoToCenterTimeStamps":[],"PhotoReleasedTimeStamps":[],"ParticipantPosition":{"x":366.8179016113281,"y":-0.36862146854400637,"z":109.16841888427735},"ParticipantRotation":{"x":-0.06636690348386765,"y":0.7404787540435791,"z":0.04217478260397911,"w":0.6674638986587524},"PointerPosition":{"x":366.47802734375,"y":-0.89537513256073,"z":109.17184448242188},"PointerRotation":{"x":355.7945251464844,"y":257.4842529296875,"z":7.237866401672363},"PointerRotationQuaternion":{"x":-0.07211519777774811,"y":-0.776441752910614,"z":0.010913863778114319,"w":0.6259540915489197},"PointerDirection":{"x":-0.9736078977584839,"y":0.07333365082740784,"z":-0.21612484753131867},"TargetBuildingName":"TaskBuilding_2","TargetBuildingPosition":{"x":197.39566040039063,"y":-2.95098876953125,"z":234.24940490722657},"TargetBuildingRotation":{"x":1.1175870895385743e-8,"y":0.9974239468574524,"z":-3.5762786865234377e-7,"w":0.07173161208629608},"TargetBuildingForward":{"x":0.14309366047382356,"y":-7.150165401981212e-7,"z":-0.9897090196609497},"DistanceToParticipant":210.50157165527345,"PointedDirections":[{"x":-0.9736078977584839,"y":0.07333365082740784,"z":-0.21612484753131867}]},
{"TrialNumber":9,"ImageIndexNumber":51,"ImageName":"26_CmANo","TimeOut":false,"TimeStampBegin":1632409031.9324864,"TimeStampEnd":1632409035.5384067,"RT":3.6059203147888185,"Angle":24.476476669311525,"TriggerPressedFreq":2,"CancelPressedFreq":0,"PhotoToCenterFreq":0,"TriggerPressedTimeStamps":[1632409035.0880397],"CancelPressedTimeStamps":[],"PhotoToCenterTimeStamps":[],"PhotoReleasedTimeStamps":[],"ParticipantPosition":{"x":366.6991882324219,"y":-0.3667607307434082,"z":109.12762451171875},"ParticipantRotation":{"x":-0.035277143120765689,"y":-0.7839197516441345,"z":-0.06852337718009949,"w":0.6160600185394287},"PointerPosition":{"x":366.58673095703127,"y":-0.8937320709228516,"z":108.9611587524414},"PointerRotation":{"x":353.6999206542969,"y":195.79037475585938,"z":17.27066421508789},"PointerRotationQuaternion":{"x":-0.15595968067646027,"y":-0.9766795039176941,"z":-0.03321995586156845,"w":0.14377152919769288},"PointerDirection":{"x":-0.27047547698020937,"y":0.10973562300205231,"z":-0.9564525485038757},"TargetBuildingName":"TaskBuilding_21","TargetBuildingPosition":{"x":151.60597229003907,"y":-5.046661376953125,"z":-144.8328399658203},"TargetBuildingRotation":{"x":0.0,"y":-0.34445929527282717,"z":5.960464477539063e-8,"w":0.9388012290000916},"TargetBuildingForward":{"x":-0.6467576026916504,"y":-4.1062747868636509e-8,"z":0.7626955509185791},"DistanceToParticipant":332.9213562011719,"PointedDirections":[{"x":-0.27047547698020937,"y":0.10973562300205231,"z":-0.9564525485038757}]},
{"TrialNumber":10,"ImageIndexNumber":7,"ImageName":"04_CmANo","TimeOut":false,"TimeStampBegin":1632409035.8062473,"TimeStampEnd":1632409045.4732888,"RT":9.667041540145874,"Angle":8.49361515045166,"TriggerPressedFreq":2,"CancelPressedFreq":0,"PhotoToCenterFreq":0,"TriggerPressedTimeStamps":[1632409042.5458959],"CancelPressedTimeStamps":[],"PhotoToCenterTimeStamps":[],"PhotoReleasedTimeStamps":[],"ParticipantPosition":{"x":366.7450866699219,"y":-0.3629739284515381,"z":109.09354400634766},"ParticipantRotation":{"x":0.031152820214629175,"y":0.9522444009780884,"z":0.10082250833511353,"w":-0.2865222096443176},"PointerPosition":{"x":366.4873046875,"y":-0.9290628433227539,"z":109.20811462402344},"PointerRotation":{"x":4.5893402099609379,"y":265.209228515625,"z":11.75987434387207},"PointerRotationQuaternion":{"x":-0.0483817495405674,"y":-0.734359622001648,"z":0.09860773384571076,"w":0.6698146462440491},"PointerDirection":{"x":-0.9933112859725952,"y":-0.08001347631216049,"z":-0.08324968814849854},"TargetBuildingName":"TaskBuilding_47","TargetBuildingPosition":{"x":-189.70550537109376,"y":2.2158985137939455,"z":-22.110198974609376},"TargetBuildingRotation":{"x":-0.6523874402046204,"y":-0.27274665236473086,"z":-0.27274659276008608,"w":0.6523873209953308},"TargetBuildingForward":{"x":-2.9802322387695315e-8,"y":1.0,"z":-2.384185791015625e-7},"DistanceToParticipant":571.7504272460938,"PointedDirections":[{"x":-0.9933112859725952,"y":-0.08001347631216049,"z":-0.08324968814849854}]},
{"TrialNumber":11,"ImageIndexNumber":109,"ImageName":"55_SaNo","TimeOut":false,"TimeStampBegin":1632409045.7500563,"TimeStampEnd":1632409059.4436293,"RT":13.693572998046875,"Angle":39.671226501464847,"TriggerPressedFreq":2,"CancelPressedFreq":0,"PhotoToCenterFreq":0,"TriggerPressedTimeStamps":[1632409058.8861228],"CancelPressedTimeStamps":[],"PhotoToCenterTimeStamps":[],"PhotoReleasedTimeStamps":[],"ParticipantPosition":{"x":366.68707275390627,"y":-0.37348079681396487,"z":109.12786865234375},"ParticipantRotation":{"x":-0.023129882290959359,"y":-0.7183203101158142,"z":-0.050317298620939258,"w":0.693505048751831},"PointerPosition":{"x":366.484130859375,"y":-0.9034943580627441,"z":109.22815704345703},"PointerRotation":{"x":352.89471435546877,"y":281.1203308105469,"z":12.310525894165039},"PointerRotationQuaternion":{"x":-0.11556413024663925,"y":-0.6252602934837341,"z":0.04351057484745979,"w":0.7705850601196289},"PointerDirection":{"x":-0.9736889600753784,"y":0.12369310855865479,"z":0.19138897955417634},"TargetBuildingName":"Windmill-TaskBuilding_10_1","TargetBuildingPosition":{"x":300.0023193359375,"y":-2.39727783203125,"z":190.71839904785157},"TargetBuildingRotation":{"x":-0.4621337652206421,"y":-0.5351938009262085,"z":-0.5351937413215637,"w":0.4621337056159973},"TargetBuildingForward":{"x":0.0,"y":0.9999999403953552,"z":-5.960464477539063e-8},"DistanceToParticipant":105.3376235961914,"PointedDirections":[{"x":-0.9736889600753784,"y":0.12369310855865479,"z":0.19138897955417634}]},
{"TrialNumber":12,"ImageIndexNumber":108,"ImageName":"55_Sa","TimeOut":false,"TimeStampBegin":1632409059.7223793,"TimeStampEnd":1632409065.4814356,"RT":5.759056329727173,"Angle":106.2463150024414,"TriggerPressedFreq":2,"CancelPressedFreq":0,"PhotoToCenterFreq":0,"TriggerPressedTimeStamps":[1632409064.805388],"CancelPressedTimeStamps":[],"PhotoToCenterTimeStamps":[],"PhotoReleasedTimeStamps":[],"ParticipantPosition":{"x":366.6913757324219,"y":-0.3591294288635254,"z":109.13372802734375},"ParticipantRotation":{"x":-0.058521997183561328,"y":-0.676388680934906,"z":-0.0638284757733345,"w":0.7314366102218628},"PointerPosition":{"x":366.53961181640627,"y":-0.9073994159698486,"z":108.98307037353516},"PointerRotation":{"x":354.4290771484375,"y":214.60610961914063,"z":13.712669372558594},"PointerRotationQuaternion":{"x":-0.1281934231519699,"y":-0.9450717568397522,"z":-0.010600455105304718,"w":0.30048874020576479},"PointerDirection":{"x":-0.5652490258216858,"y":0.09707774221897125,"z":-0.8191884160041809},"TargetBuildingName":"Windmill-TaskBuilding_10_1","TargetBuildingPosition":{"x":300.0023193359375,"y":-2.39727783203125,"z":190.71839904785157},"TargetBuildingRotation":{"x":-0.4621337652206421,"y":-0.5351938009262085,"z":-0.5351937413215637,"w":0.4621337056159973},"TargetBuildingForward":{"x":0.0,"y":0.9999999403953552,"z":-5.960464477539063e-8},"DistanceToParticipant":105.3376235961914,"PointedDirections":[{"x":-0.5652490258216858,"y":0.09707774221897125,"z":-0.8191884160041809}]},
{"TrialNumber":13,"ImageIndexNumber":62,"ImageName":"32_Sa","TimeOut":false,"TimeStampBegin":1632409066.7254039,"TimeStampEnd":1632409071.132861,"RT":4.407457113265991,"Angle":50.707008361816409,"TriggerPressedFreq":2,"CancelPressedFreq":0,"PhotoToCenterFreq":0,"TriggerPressedTimeStamps":[1632409070.785661],"CancelPressedTimeStamps":[],"PhotoToCenterTimeStamps":[],"PhotoReleasedTimeStamps":[],"ParticipantPosition":{"x":-101.06333923339844,"y":3.9606211185455324,"z":122.4102783203125},"ParticipantRotation":{"x":0.03377068415284157,"y":0.937850296497345,"z":0.10105808079242706,"w":-0.3302781283855438},"PointerPosition":{"x":-101.29917907714844,"y":3.401637315750122,"z":122.44691467285156},"PointerRotation":{"x":355.5959777832031,"y":247.82716369628907,"z":14.6113920211792},"PointerRotationQuaternion":{"x":-0.12671592831611634,"y":-0.8198090195655823,"z":0.03926984965801239,"w":0.5570584535598755},"PointerDirection":{"x":-0.9233153462409973,"y":0.07678880542516709,"z":-0.3762875199317932},"TargetBuildingName":"TaskBuilding_7","TargetBuildingPosition":{"x":-192.46141052246095,"y":-0.9466400146484375,"z":-173.51004028320313},"TargetBuildingRotation":{"x":-5.960464477539063e-8,"y":0.23736262321472169,"z":-2.2351741790771486e-8,"w":0.9714211225509644},"TargetBuildingForward":{"x":0.4611581265926361,"y":1.0519148929688527e-7,"z":0.887317955493927},"DistanceToParticipant":309.8707580566406,"PointedDirections":[{"x":-0.9233153462409973,"y":0.07678880542516709,"z":-0.3762875199317932}]},
{"TrialNumber":14,"ImageIndexNumber":13,"ImageName":"07_CmANo","TimeOut":false,"TimeStampBegin":1632409071.397229,"TimeStampEnd":1632409079.0217419,"RT":7.6245129108428959,"Angle":22.286184310913087,"TriggerPressedFreq":2,"CancelPressedFreq":0,"PhotoToCenterFreq":0,"TriggerPressedTimeStamps":[1632409078.523262],"CancelPressedTimeStamps":[],"PhotoToCenterTimeStamps":[],"PhotoReleasedTimeStamps":[],"ParticipantPosition":{"x":-101.09172058105469,"y":3.9557712078094484,"z":122.43187713623047},"ParticipantRotation":{"x":-0.04509500414133072,"y":-0.8399049639701843,"z":-0.08072342723608017,"w":0.5347989797592163},"PointerPosition":{"x":-100.76347351074219,"y":3.4042060375213625,"z":122.5191650390625},"PointerRotation":{"x":359.0694580078125,"y":67.89969635009766,"z":17.940067291259767},"PointerRotationQuaternion":{"x":0.08041849732398987,"y":0.552669107913971,"z":0.13381324708461762,"w":0.818647563457489},"PointerDirection":{"x":0.9264045357704163,"y":0.01624007523059845,"z":0.37617945671081545},"TargetBuildingName":"TaskBuilding_9","TargetBuildingPosition":{"x":375.8138122558594,"y":-2.2880401611328127,"z":120.9730453491211},"TargetBuildingRotation":{"x":-4.470348358154297e-8,"y":0.9363456964492798,"z":-2.682209014892578e-7,"w":-0.3510795831680298},"TargetBuildingForward":{"x":-0.6574637293815613,"y":-5.336839308256458e-7,"z":-0.7534865140914917},"DistanceToParticipant":476.8868408203125,"PointedDirections":[{"x":0.9264045357704163,"y":0.01624007523059845,"z":0.37617945671081545}]},
{"TrialNumber":15,"ImageIndexNumber":107,"ImageName":"54_SaNo","TimeOut":false,"TimeStampBegin":1632409079.2885895,"TimeStampEnd":1632409082.9297267,"RT":3.64113712310791,"Angle":112.8028335571289,"TriggerPressedFreq":2,"CancelPressedFreq":0,"PhotoToCenterFreq":0,"TriggerPressedTimeStamps":[1632409082.3543664],"CancelPressedTimeStamps":[],"PhotoToCenterTimeStamps":[],"PhotoReleasedTimeStamps":[],"ParticipantPosition":{"x":-100.99641418457031,"y":3.9534428119659426,"z":122.5321044921875},"ParticipantRotation":{"x":-0.07222315669059754,"y":0.515648603439331,"z":0.03774665296077728,"w":0.8529159426689148},"PointerPosition":{"x":-100.84559631347656,"y":3.4140536785125734,"z":122.27536010742188},"PointerRotation":{"x":354.6974182128906,"y":128.6318817138672,"z":15.198943138122559},"PointerRotationQuaternion":{"x":0.09918113052845001,"y":0.894977331161499,"z":0.09857652336359024,"w":0.4236287772655487},"PointerDirection":{"x":0.7778301239013672,"y":0.09241554886102677,"z":-0.6216426491737366},"TargetBuildingName":"TaskBuilding_55","TargetBuildingPosition":{"x":-334.5362854003906,"y":2.261275291442871,"z":-4.953290939331055},"TargetBuildingRotation":{"x":2.9802322387695315e-8,"y":0.9336603283882141,"z":-1.7881393432617188e-7,"w":-0.35815975069999697},"TargetBuildingForward":{"x":-0.668799102306366,"y":-3.125549881133338e-7,"z":-0.7434432506561279},"DistanceToParticipant":266.0345764160156,"PointedDirections":[{"x":0.7778301239013672,"y":0.09241554886102677,"z":-0.6216426491737366}]},
{"TrialNumber":16,"ImageIndexNumber":94,"ImageName":"48_Sa","TimeOut":false,"TimeStampBegin":1632409083.198558,"TimeStampEnd":1632409085.6636785,"RT":2.465120315551758,"Angle":55.942405700683597,"TriggerPressedFreq":2,"CancelPressedFreq":0,"PhotoToCenterFreq":0,"TriggerPressedTimeStamps":[1632409085.3541744],"CancelPressedTimeStamps":[],"PhotoToCenterTimeStamps":[],"PhotoReleasedTimeStamps":[],"ParticipantPosition":{"x":-100.96400451660156,"y":3.9502174854278566,"z":122.4734878540039},"ParticipantRotation":{"x":-0.048737287521362308,"y":0.8525200486183167,"z":0.06327655166387558,"w":0.5165562629699707},"PointerPosition":{"x":-100.82975769042969,"y":3.4146335124969484,"z":122.31129455566406},"PointerRotation":{"x":355.21270751953127,"y":114.11538696289063,"z":11.02802848815918},"PointerRotationQuaternion":{"x":0.057963091880083087,"y":0.8367887139320374,"z":0.08709483593702316,"w":0.5374377965927124},"PointerDirection":{"x":0.9095402956008911,"y":0.0834568440914154,"z":-0.40715011954307558},"TargetBuildingName":"TaskBuilding_37","TargetBuildingPosition":{"x":-43.78580856323242,"y":-4.851409912109375,"z":-203.1201171875},"TargetBuildingRotation":{"x":2.9802322387695315e-8,"y":0.29550158977508547,"z":-8.940696716308594e-8,"w":0.9553422927856445},"TargetBuildingForward":{"x":0.5646103620529175,"y":-1.0978263986771708e-7,"z":0.8253576159477234},"DistanceToParticipant":330.7461853027344,"PointedDirections":[{"x":0.9095402956008911,"y":0.0834568440914154,"z":-0.40715011954307558}]},
{"TrialNumber":17,"ImageIndexNumber":54,"ImageName":"28_CmA","TimeOut":false,"TimeStampBegin":1632409085.9315193,"TimeStampEnd":1632409089.6401118,"RT":3.708592414855957,"Angle":32.053646087646487,"TriggerPressedFreq":2,"CancelPressedFreq":0,"PhotoToCenterFreq":0,"TriggerPressedTimeStamps":[1632409089.279519],"CancelPressedTimeStamps":[],"PhotoToCenterTimeStamps":[],"PhotoReleasedTimeStamps":[],"ParticipantPosition":{"x":-100.96574401855469,"y":3.951444387435913,"z":122.47620391845703},"ParticipantRotation":{"x":-0.057826291769742969,"y":0.8395676016807556,"z":0.06592342257499695,"w":0.5361310839653015},"PointerPosition":{"x":-101.05546569824219,"y":3.4081175327301027,"z":122.20826721191406},"PointerRotation":{"x":356.5738525390625,"y":172.46588134765626,"z":14.340165138244629},"PointerRotationQuaternion":{"x":0.1225411519408226,"y":0.9898390173912048,"z":0.03779313713312149,"w":0.061434123665094379},"PointerDirection":{"x":0.13088221848011018,"y":0.05976182967424393,"z":-0.9895952343940735},"TargetBuildingName":"Church-TaskBuilding_16","TargetBuildingPosition":{"x":0.0,"y":0.000032424919481854886,"z":0.000045776359911542386},"TargetBuildingRotation":{"x":0.0,"y":2.1073422118433883e-8,"z":-3.188461050740443e-8,"w":1.0},"TargetBuildingForward":{"x":4.2146844236867767e-8,"y":-1.3438356643899583e-15,"z":1.0},"DistanceToParticipant":158.8555908203125,"PointedDirections":[{"x":0.13088221848011018,"y":0.05976182967424393,"z":-0.9895952343940735}]},
{"TrialNumber":18,"ImageIndexNumber":30,"ImageName":"16_CmA","TimeOut":false,"TimeStampBegin":1632409089.9114233,"TimeStampEnd":1632409093.8213969,"RT":3.909973621368408,"Angle":126.51465606689453,"TriggerPressedFreq":2,"CancelPressedFreq":0,"PhotoToCenterFreq":0,"TriggerPressedTimeStamps":[1632409093.4087196],"CancelPressedTimeStamps":[],"PhotoToCenterTimeStamps":[],"PhotoReleasedTimeStamps":[],"ParticipantPosition":{"x":-100.99540710449219,"y":3.95192551612854,"z":122.41915893554688},"ParticipantRotation":{"x":-0.020717840641736985,"y":0.9902061223983765,"z":0.08448389172554016,"w":0.10920222848653794},"PointerPosition":{"x":-101.25132751464844,"y":3.4019529819488527,"z":122.31754302978516},"PointerRotation":{"x":358.03643798828127,"y":220.08349609375,"z":13.692255973815918},"PointerRotationQuaternion":{"x":-0.11779854446649552,"y":-0.9319078922271729,"z":0.02486341819167137,"w":0.34213006496429446},"PointerDirection":{"x":-0.6435251832008362,"y":0.034264013171195987,"z":-0.7646576166152954},"TargetBuildingName":"TaskBuilding_23","TargetBuildingPosition":{"x":110.38475799560547,"y":-0.6672897338867188,"z":109.11808013916016},"TargetBuildingRotation":{"x":0.0,"y":0.0,"z":0.0,"w":1.0},"TargetBuildingForward":{"x":0.0,"y":0.0,"z":1.0},"DistanceToParticipant":211.8805389404297,"PointedDirections":[{"x":-0.6435251832008362,"y":0.034264013171195987,"z":-0.7646576166152954}]},
{"TrialNumber":19,"ImageIndexNumber":7,"ImageName":"04_CmANo","TimeOut":false,"TimeStampBegin":1632409094.0867522,"TimeStampEnd":1632409096.9908324,"RT":2.9040801525115969,"Angle":30.5342960357666,"TriggerPressedFreq":2,"CancelPressedFreq":0,"PhotoToCenterFreq":0,"TriggerPressedTimeStamps":[1632409096.618337],"CancelPressedTimeStamps":[],"PhotoToCenterTimeStamps":[],"PhotoReleasedTimeStamps":[],"ParticipantPosition":{"x":-101.06300354003906,"y":3.9492146968841554,"z":122.40867614746094},"ParticipantRotation":{"x":0.009151470847427845,"y":0.9360448718070984,"z":0.06685177236795426,"w":-0.34535083174705508},"PointerPosition":{"x":-101.10945129394531,"y":3.4081509113311769,"z":122.22135162353516},"PointerRotation":{"x":356.3631591796875,"y":181.00885009765626,"z":13.549518585205079},"PointerRotationQuaternion":{"x":-0.11817995458841324,"y":-0.9924461245536804,"z":-0.030471157282590867,"w":0.012481056153774262},"PointerDirection":{"x":-0.01757139153778553,"y":0.0634319856762886,"z":-0.9978315830230713},"TargetBuildingName":"TaskBuilding_47","TargetBuildingPosition":{"x":-189.70550537109376,"y":2.2158985137939455,"z":-22.110198974609376},"TargetBuildingRotation":{"x":-0.6523874402046204,"y":-0.27274665236473086,"z":-0.27274659276008608,"w":0.6523873209953308},"TargetBuildingForward":{"x":-2.9802322387695315e-8,"y":1.0,"z":-2.384185791015625e-7},"DistanceToParticipant":169.66796875,"PointedDirections":[{"x":-0.01757139153778553,"y":0.0634319856762886,"z":-0.9978315830230713}]},
{"TrialNumber":20,"ImageIndexNumber":23,"ImageName":"12_CmANo","TimeOut":false,"TimeStampBegin":1632409097.2611528,"TimeStampEnd":1632409101.2003864,"RT":3.9392335414886476,"Angle":177.77041625976563,"TriggerPressedFreq":2,"CancelPressedFreq":0,"PhotoToCenterFreq":0,"TriggerPressedTimeStamps":[1632409100.8308652],"CancelPressedTimeStamps":[],"PhotoToCenterTimeStamps":[],"PhotoReleasedTimeStamps":[],"ParticipantPosition":{"x":-101.00764465332031,"y":3.9496705532073976,"z":122.40647888183594},"ParticipantRotation":{"x":0.0018607823876664043,"y":0.9973368048667908,"z":0.06904575973749161,"w":-0.023422570899128915},"PointerPosition":{"x":-100.81700134277344,"y":3.4048197269439699,"z":122.31300354003906},"PointerRotation":{"x":357.4840393066406,"y":110.59265899658203,"z":15.183320999145508},"PointerRotationQuaternion":{"x":0.09619458764791489,"y":0.8163564801216126,"z":0.09308796375989914,"w":0.5618214011192322},"PointerDirection":{"x":0.9352021813392639,"y":0.04389756917953491,"z":-0.35138264298439028},"TargetBuildingName":"TaskBuilding_51","TargetBuildingPosition":{"x":-238.29705810546876,"y":1.779541015625,"z":180.16697692871095},"TargetBuildingRotation":{"x":5.960464477539063e-8,"y":0.384346067905426,"z":-7.450580596923828e-8,"w":0.9231891632080078},"TargetBuildingForward":{"x":0.7096482515335083,"y":-1.6732474250602537e-7,"z":0.7045561671257019},"DistanceToParticipant":148.85330200195313,"PointedDirections":[{"x":0.9352021813392639,"y":0.04389756917953491,"z":-0.35138264298439028}]},
{"TrialNumber":21,"ImageIndexNumber":99,"ImageName":"50_SaNo","TimeOut":false,"TimeStampBegin":1632409101.477153,"TimeStampEnd":1632409106.0487855,"RT":4.571632385253906,"Angle":6.418754577636719,"TriggerPressedFreq":2,"CancelPressedFreq":0,"PhotoToCenterFreq":0,"TriggerPressedTimeStamps":[1632409105.7040668],"CancelPressedTimeStamps":[],"PhotoToCenterTimeStamps":[],"PhotoReleasedTimeStamps":[],"ParticipantPosition":{"x":-100.94532775878906,"y":3.953557252883911,"z":122.47187805175781},"ParticipantRotation":{"x":-0.032424069941043857,"y":0.8074934482574463,"z":0.05763174593448639,"w":0.5861584544181824},"PointerPosition":{"x":-101.05842590332031,"y":3.409189462661743,"z":122.73133087158203},"PointerRotation":{"x":356.843505859375,"y":334.2087707519531,"z":12.780760765075684},"PointerRotationQuaternion":{"x":-0.051511067897081378,"y":-0.21871648728847505,"z":0.10234516859054566,"w":0.9690382480621338},"PointerDirection":{"x":-0.43443310260772707,"y":0.055063240230083469,"z":0.8990194201469421},"TargetBuildingName":"TaskBuilding_40","TargetBuildingPosition":{"x":-109.41808319091797,"y":1.712005615234375,"z":136.0010986328125},"TargetBuildingRotation":{"x":1.4901161193847657e-8,"y":0.9559985995292664,"z":-2.086162567138672e-7,"w":0.29337114095687868},"TargetBuildingForward":{"x":0.5609248280525208,"y":-4.0761685227153068e-7,"z":-0.8278666734695435},"DistanceToParticipant":15.855459213256836,"PointedDirections":[{"x":-0.43443310260772707,"y":0.055063240230083469,"z":0.8990194201469421}]},
{"TrialNumber":22,"ImageIndexNumber":88,"ImageName":"45_Sa","TimeOut":false,"TimeStampBegin":1632409106.3151379,"TimeStampEnd":1632409110.7667392,"RT":4.451601266860962,"Angle":20.26201057434082,"TriggerPressedFreq":2,"CancelPressedFreq":0,"PhotoToCenterFreq":0,"TriggerPressedTimeStamps":[1632409110.3674603],"CancelPressedTimeStamps":[],"PhotoToCenterTimeStamps":[],"PhotoReleasedTimeStamps":[],"ParticipantPosition":{"x":-101.07539367675781,"y":3.95259690284729,"z":122.53473663330078},"ParticipantRotation":{"x":-0.07699579745531082,"y":-0.23908768594264985,"z":-0.02443494275212288,"w":0.967631995677948},"PointerPosition":{"x":-100.88069152832031,"y":3.4085748195648195,"z":122.25171661376953},"PointerRotation":{"x":356.4464111328125,"y":132.79043579101563,"z":16.54793357849121},"PointerRotationQuaternion":{"x":0.11951612681150437,"y":0.9081422090530396,"z":0.08571196347475052,"w":0.3919784426689148},"PointerDirection":{"x":0.7324322462081909,"y":0.06198181211948395,"z":-0.6780127882957459},"TargetBuildingName":"TaskBuilding_33","TargetBuildingPosition":{"x":-7.537855625152588,"y":-2.005443572998047,"z":-61.35914993286133},"TargetBuildingRotation":{"x":2.9802322387695315e-8,"y":-0.35620027780532839,"z":4.470348358154297e-8,"w":0.9344096183776856},"TargetBuildingForward":{"x":-0.6656739115715027,"y":-8.754194169569019e-8,"z":0.7462427020072937},"DistanceToParticipant":206.36459350585938,"PointedDirections":[{"x":0.7324322462081909,"y":0.06198181211948395,"z":-0.6780127882957459}]},
{"TrialNumber":23,"ImageIndexNumber":65,"ImageName":"33_SaNo","TimeOut":false,"TimeStampBegin":1632409111.0375546,"TimeStampEnd":1632409113.333043,"RT":2.2954885959625246,"Angle":54.724891662597659,"TriggerPressedFreq":2,"CancelPressedFreq":0,"PhotoToCenterFreq":0,"TriggerPressedTimeStamps":[1632409112.9193788],"CancelPressedTimeStamps":[],"PhotoToCenterTimeStamps":[],"PhotoReleasedTimeStamps":[],"ParticipantPosition":{"x":-100.97615051269531,"y":3.9541962146759035,"z":122.4749755859375},"ParticipantRotation":{"x":-0.044005464762449267,"y":0.8912205696105957,"z":0.09061422199010849,"w":0.44224268198013308},"PointerPosition":{"x":-101.06175231933594,"y":3.403249502182007,"z":122.20207214355469},"PointerRotation":{"x":357.2790832519531,"y":170.896240234375,"z":14.018548965454102},"PointerRotationQuaternion":{"x":0.11974065750837326,"y":0.9893469214439392,"z":0.0331723727285862,"w":0.07585833221673966},"PointerDirection":{"x":0.15804457664489747,"y":0.047471314668655398,"z":-0.9862903356552124},"TargetBuildingName":"TaskBuilding_17","TargetBuildingPosition":{"x":172.50009155273438,"y":-1.500279426574707,"z":-12.23713493347168},"TargetBuildingRotation":{"x":2.9802322387695315e-8,"y":-0.3360430598258972,"z":7.450580596923828e-8,"w":0.9418466091156006},"TargetBuildingForward":{"x":-0.6330020427703857,"y":-1.0621275237099326e-7,"z":0.7741501331329346},"DistanceToParticipant":304.9775695800781,"PointedDirections":[{"x":0.15804457664489747,"y":0.047471314668655398,"z":-0.9862903356552124}]},
{"TrialNumber":24,"ImageIndexNumber":68,"ImageName":"35_Sa","TimeOut":false,"TimeStampBegin":1632409113.599396,"TimeStampEnd":1632409115.9251395,"RT":2.3257434368133547,"Angle":105.98021697998047,"TriggerPressedFreq":2,"CancelPressedFreq":0,"PhotoToCenterFreq":0,"TriggerPressedTimeStamps":[1632409115.5278445],"CancelPressedTimeStamps":[],"PhotoToCenterTimeStamps":[],"PhotoReleasedTimeStamps":[],"ParticipantPosition":{"x":-101.00340270996094,"y":3.950237512588501,"z":122.40887451171875},"ParticipantRotation":{"x":-0.016248062252998353,"y":0.9926438331604004,"z":0.07892971485853195,"w":0.0903572142124176},"PointerPosition":{"x":-101.20326232910156,"y":3.41327166557312,"z":122.25471496582031},"PointerRotation":{"x":354.3485412597656,"y":206.5745849609375,"z":14.072919845581055},"PointerRotationQuaternion":{"x":-0.1303216516971588,"y":-0.9633374810218811,"z":-0.019496506080031396,"w":0.23370294272899629},"PointerDirection":{"x":-0.4451879858970642,"y":0.09847653657197952,"z":-0.8900057077407837},"TargetBuildingName":"TaskBuilding_12","TargetBuildingPosition":{"x":401.8287353515625,"y":-2.357715606689453,"z":28.165992736816408},"TargetBuildingRotation":{"x":-2.9802322387695315e-8,"y":-0.3356735110282898,"z":5.960464477539063e-8,"w":0.941978394985199},"TargetBuildingForward":{"x":-0.6323943734169006,"y":1.6130886848486626e-8,"z":0.7746465802192688},"DistanceToParticipant":511.67926025390627,"PointedDirections":[{"x":-0.4451879858970642,"y":0.09847653657197952,"z":-0.8900057077407837}]},
{"TrialNumber":25,"ImageIndexNumber":72,"ImageName":"37_Sa","TimeOut":false,"TimeStampBegin":1632409117.176548,"TimeStampEnd":1632409119.3336528,"RT":2.157104730606079,"Angle":137.34542846679688,"TriggerPressedFreq":2,"CancelPressedFreq":0,"PhotoToCenterFreq":0,"TriggerPressedTimeStamps":[1632409118.969092],"CancelPressedTimeStamps":[],"PhotoToCenterTimeStamps":[],"PhotoReleasedTimeStamps":[],"ParticipantPosition":{"x":30.083831787109376,"y":1.1683220863342286,"z":177.75857543945313},"ParticipantRotation":{"x":0.0004939374630339444,"y":0.9761666655540466,"z":0.06993957608938217,"w":-0.2054433524608612},"PointerPosition":{"x":29.951095581054689,"y":0.6361043453216553,"z":177.61203002929688},"PointerRotation":{"x":353.5917053222656,"y":199.4085693359375,"z":12.567553520202637},"PointerRotationQuaternion":{"x":-0.11708305776119232,"y":-0.9772059321403503,"z":-0.03634211793541908,"w":0.17331869900226594},"PointerDirection":{"x":-0.33022603392601015,"y":0.11161282658576966,"z":-0.9372797608375549},"TargetBuildingName":"TaskBuilding_19","TargetBuildingPosition":{"x":105.5721206665039,"y":-1.685760498046875,"z":217.71360778808595},"TargetBuildingRotation":{"x":-3.725290298461914e-9,"y":0.9971811175346375,"z":-1.7881393432617188e-7,"w":0.07503241300582886},"TargetBuildingForward":{"x":0.14964181184768678,"y":-3.560607240160607e-7,"z":-0.9887403249740601},"DistanceToParticipant":85.34649658203125,"PointedDirections":[{"x":-0.33022603392601015,"y":0.11161282658576966,"z":-0.9372797608375549}]},
{"TrialNumber":26,"ImageIndexNumber":93,"ImageName":"47_SaNo","TimeOut":false,"TimeStampBegin":1632409119.6079396,"TimeStampEnd":1632409122.2188853,"RT":2.610945701599121,"Angle":62.75575256347656,"TriggerPressedFreq":2,"CancelPressedFreq":0,"PhotoToCenterFreq":0,"TriggerPressedTimeStamps":[1632409121.9193006],"CancelPressedTimeStamps":[],"PhotoToCenterTimeStamps":[],"PhotoReleasedTimeStamps":[],"ParticipantPosition":{"x":30.089385986328126,"y":1.1725025177001954,"z":177.7625732421875},"ParticipantRotation":{"x":0.005508610047399998,"y":0.9822115302085877,"z":0.09672242403030396,"w":-0.16085706651210786},"PointerPosition":{"x":29.839935302734376,"y":0.6296741962432861,"z":177.85462951660157},"PointerRotation":{"x":353.1637268066406,"y":257.12127685546877,"z":13.697687149047852},"PointerRotationQuaternion":{"x":-0.12998181581497193,"y":-0.7705559134483337,"z":0.027912626042962076,"w":0.6233532428741455},"PointerDirection":{"x":-0.9679133296012878,"y":0.11903269588947296,"z":-0.22130341827869416},"TargetBuildingName":"TaskBuilding_36","TargetBuildingPosition":{"x":-52.68944549560547,"y":-3.524444580078125,"z":-144.3808135986328},"TargetBuildingRotation":{"x":0.0,"y":0.937308669090271,"z":-1.4901161193847657e-7,"w":-0.3485003709793091},"TargetBuildingForward":{"x":-0.6533048152923584,"y":-2.7933975843552619e-7,"z":-0.7570950984954834},"DistanceToParticipant":332.7708435058594,"PointedDirections":[{"x":-0.9679133296012878,"y":0.11903269588947296,"z":-0.22130341827869416}]},
{"TrialNumber":27,"ImageIndexNumber":83,"ImageName":"42_SaNo","TimeOut":false,"TimeStampBegin":1632409122.4911893,"TimeStampEnd":1632409124.882405,"RT":2.3912158012390138,"Angle":122.01239776611328,"TriggerPressedFreq":2,"CancelPressedFreq":0,"PhotoToCenterFreq":0,"TriggerPressedTimeStamps":[1632409124.5505813],"CancelPressedTimeStamps":[],"PhotoToCenterTimeStamps":[],"PhotoReleasedTimeStamps":[],"ParticipantPosition":{"x":30.0462646484375,"y":1.1712849140167237,"z":177.79598999023438},"ParticipantRotation":{"x":-0.05279796943068504,"y":-0.7969213724136353,"z":-0.07551996409893036,"w":0.5970138311386108},"PointerPosition":{"x":29.853713989257814,"y":0.6372630596160889,"z":177.9835662841797},"PointerRotation":{"x":353.9222717285156,"y":291.5477294921875,"z":13.5877103805542},"PointerRotationQuaternion":{"x":-0.10996903479099274,"y":-0.5525403022766113,"z":0.06806512922048569,"w":0.823391318321228},"PointerDirection":{"x":-0.9248839020729065,"y":0.10587763786315918,"z":0.365212082862854},"TargetBuildingName":"TaskBuilding_28","TargetBuildingPosition":{"x":71.65252685546875,"y":-2.8223953247070314,"z":-48.32182312011719},"TargetBuildingRotation":{"x":2.9802322387695315e-8,"y":0.9320754408836365,"z":-1.7881393432617188e-7,"w":-0.3622642457485199},"TargetBuildingForward":{"x":-0.6753152012825012,"y":-3.1174351988738638e-7,"z":-0.7375292778015137},"DistanceToParticipant":230.03802490234376,"PointedDirections":[{"x":-0.9248839020729065,"y":0.10587763786315918,"z":0.365212082862854}]},
{"TrialNumber":28,"ImageIndexNumber":98,"ImageName":"50_Sa","TimeOut":false,"TimeStampBegin":1632409125.14975,"TimeStampEnd":1632409128.605381,"RT":3.4556310176849367,"Angle":94.67024993896485,"TriggerPressedFreq":2,"CancelPressedFreq":0,"PhotoToCenterFreq":0,"TriggerPressedTimeStamps":[1632409128.2264384],"CancelPressedTimeStamps":[],"PhotoToCenterTimeStamps":[],"PhotoReleasedTimeStamps":[],"ParticipantPosition":{"x":30.021347045898439,"y":1.170534610748291,"z":177.83462524414063},"ParticipantRotation":{"x":-0.05164783447980881,"y":-0.5690298080444336,"z":-0.03404000401496887,"w":0.8199871778488159},"PointerPosition":{"x":30.10748291015625,"y":0.6350586414337158,"z":178.11949157714845},"PointerRotation":{"x":352.2150573730469,"y":347.8728332519531,"z":12.879959106445313},"PointerRotationQuaternion":{"x":-0.0788990780711174,"y":-0.09715194255113602,"z":0.10415201634168625,"w":0.9866553544998169},"PointerDirection":{"x":-0.20814596116542817,"y":0.13545525074005128,"z":0.9686728715896606},"TargetBuildingName":"TaskBuilding_40","TargetBuildingPosition":{"x":-109.41808319091797,"y":1.712005615234375,"z":136.0010986328125},"TargetBuildingRotation":{"x":1.4901161193847657e-8,"y":0.9559985995292664,"z":-2.086162567138672e-7,"w":0.29337114095687868},"TargetBuildingForward":{"x":0.5609248280525208,"y":-4.0761685227153068e-7,"z":-0.8278666734695435},"DistanceToParticipant":145.6777801513672,"PointedDirections":[{"x":-0.20814596116542817,"y":0.13545525074005128,"z":0.9686728715896606}]},
{"TrialNumber":29,"ImageIndexNumber":24,"ImageName":"13_CmA","TimeOut":false,"TimeStampBegin":1632409128.872229,"TimeStampEnd":1632409132.6462937,"RT":3.774064540863037,"Angle":98.24183654785156,"TriggerPressedFreq":2,"CancelPressedFreq":0,"PhotoToCenterFreq":0,"TriggerPressedTimeStamps":[1632409132.3243907],"CancelPressedTimeStamps":[],"PhotoToCenterTimeStamps":[],"PhotoReleasedTimeStamps":[],"ParticipantPosition":{"x":30.059249877929689,"y":1.166929006576538,"z":177.90921020507813},"ParticipantRotation":{"x":-0.049518946558237079,"y":-0.08927261829376221,"z":-0.009982629679143429,"w":0.9947254657745361},"PointerPosition":{"x":30.331939697265626,"y":0.6372799873352051,"z":177.9767608642578},"PointerRotation":{"x":353.9754333496094,"y":47.22221755981445,"z":15.053544044494629},"PointerRotationQuaternion":{"x":0.004656306467950344,"y":0.4028342664241791,"z":0.14072419703006745,"w":0.9043779969215393},"PointerDirection":{"x":0.7299394011497498,"y":0.10495493561029434,"z":0.675405740737915},"TargetBuildingName":"TaskBuilding_3","TargetBuildingPosition":{"x":132.77926635742188,"y":-1.083272933959961,"z":29.115131378173829},"TargetBuildingRotation":{"x":0.0,"y":0.937813401222229,"z":-1.7881393432617188e-7,"w":0.347139835357666},"TargetBuildingForward":{"x":0.6511048078536987,"y":-3.353882220835658e-7,"z":-0.7589879035949707},"DistanceToParticipant":180.8001251220703,"PointedDirections":[{"x":0.7299394011497498,"y":0.10495493561029434,"z":0.675405740737915}]},
{"TrialNumber":30,"ImageIndexNumber":31,"ImageName":"16_CmANo","TimeOut":false,"TimeStampBegin":1632409132.9126459,"TimeStampEnd":1632409136.5860224,"RT":3.6733765602111818,"Angle":5.88519811630249,"TriggerPressedFreq":2,"CancelPressedFreq":0,"PhotoToCenterFreq":0,"TriggerPressedTimeStamps":[1632409136.0959748],"CancelPressedTimeStamps":[],"PhotoToCenterTimeStamps":[],"PhotoReleasedTimeStamps":[],"ParticipantPosition":{"x":30.12451171875,"y":1.1619446277618409,"z":177.9218292236328},"ParticipantRotation":{"x":-0.05146743357181549,"y":0.3796383738517761,"z":0.016411878168582917,"w":0.9235564470291138},"PointerPosition":{"x":30.265838623046876,"y":0.6403348445892334,"z":177.61170959472657},"PointerRotation":{"x":352.4945373535156,"y":136.41232299804688,"z":13.200336456298829},"PointerRotationQuaternion":{"x":0.08235730975866318,"y":0.9231871962547302,"z":0.10295189917087555,"w":0.3610314428806305},"PointerDirection":{"x":0.6835569143295288,"y":0.13062059879302979,"z":-0.7181146740913391},"TargetBuildingName":"TaskBuilding_23","TargetBuildingPosition":{"x":110.38475799560547,"y":-0.6672897338867188,"z":109.11808013916016},"TargetBuildingRotation":{"x":0.0,"y":0.0,"z":0.0,"w":1.0},"TargetBuildingForward":{"x":0.0,"y":0.0,"z":1.0},"DistanceToParticipant":105.74297332763672,"PointedDirections":[{"x":0.6835569143295288,"y":0.13062059879302979,"z":-0.7181146740913391}]},
{"TrialNumber":31,"ImageIndexNumber":82,"ImageName":"42_Sa","TimeOut":false,"TimeStampBegin":1632409136.8543597,"TimeStampEnd":1632409140.055047,"RT":3.2006874084472658,"Angle":11.776289939880371,"TriggerPressedFreq":2,"CancelPressedFreq":0,"PhotoToCenterFreq":0,"TriggerPressedTimeStamps":[1632409139.6200557],"CancelPressedTimeStamps":[],"PhotoToCenterTimeStamps":[],"PhotoReleasedTimeStamps":[],"ParticipantPosition":{"x":30.187225341796876,"y":1.1645920276641846,"z":177.82537841796876},"ParticipantRotation":{"x":-0.024898549541831018,"y":0.8775367140769959,"z":0.05123165622353554,"w":0.4761141538619995},"PointerPosition":{"x":30.049057006835939,"y":0.6412556171417236,"z":177.56724548339845},"PointerRotation":{"x":352.4548034667969,"y":181.3406982421875,"z":11.58568000793457},"PointerRotationQuaternion":{"x":-0.10147222876548767,"y":-0.9925917983055115,"z":-0.06427787244319916,"w":0.018255123868584634},"PointerDirection":{"x":-0.02319493517279625,"y":0.1313081532716751,"z":-0.9910702109336853},"TargetBuildingName":"TaskBuilding_28","TargetBuildingPosition":{"x":71.65252685546875,"y":-2.8223953247070314,"z":-48.32182312011719},"TargetBuildingRotation":{"x":2.9802322387695315e-8,"y":0.9320754408836365,"z":-1.7881393432617188e-7,"w":-0.3622642457485199},"TargetBuildingForward":{"x":-0.6753152012825012,"y":-3.1174351988738638e-7,"z":-0.7375292778015137},"DistanceToParticipant":230.03802490234376,"PointedDirections":[{"x":-0.02319493517279625,"y":0.1313081532716751,"z":-0.9910702109336853}]},
{"TrialNumber":32,"ImageIndexNumber":99,"ImageName":"50_SaNo","TimeOut":false,"TimeStampBegin":1632409140.328839,"TimeStampEnd":1632409147.1136244,"RT":6.784785270690918,"Angle":47.19000244140625,"TriggerPressedFreq":2,"CancelPressedFreq":0,"PhotoToCenterFreq":0,"TriggerPressedTimeStamps":[1632409142.2949837],"CancelPressedTimeStamps":[],"PhotoToCenterTimeStamps":[],"PhotoReleasedTimeStamps":[],"ParticipantPosition":{"x":30.118927001953126,"y":1.1681811809539796,"z":177.77374267578126},"ParticipantRotation":{"x":-0.022141221910715104,"y":0.9958512187004089,"z":0.07193201780319214,"w":0.05114679038524628},"PointerPosition":{"x":29.937103271484376,"y":0.642176628112793,"z":177.61361694335938},"PointerRotation":{"x":352.4174499511719,"y":206.18397521972657,"z":11.130005836486817},"PointerRotationQuaternion":{"x":-0.10915468633174896,"y":-0.9658430218696594,"z":-0.042181432247161868,"w":0.23119959235191346},"PointerDirection":{"x":-0.43739643692970278,"y":0.13195432722568513,"z":-0.8895350098609924},"TargetBuildingName":"TaskBuilding_40","TargetBuildingPosition":{"x":-109.41808319091797,"y":1.712005615234375,"z":136.0010986328125},"TargetBuildingRotation":{"x":1.4901161193847657e-8,"y":0.9559985995292664,"z":-2.086162567138672e-7,"w":0.29337114095687868},"TargetBuildingForward":{"x":0.5609248280525208,"y":-4.0761685227153068e-7,"z":-0.8278666734695435},"DistanceToParticipant":145.6777801513672,"PointedDirections":[{"x":-0.43739643692970278,"y":0.13195432722568513,"z":-0.8895350098609924}]},
{"TrialNumber":33,"ImageIndexNumber":94,"ImageName":"48_Sa","TimeOut":false,"TimeStampBegin":1632409147.3864248,"TimeStampEnd":1632409150.8529692,"RT":3.4665443897247316,"Angle":61.515811920166019,"TriggerPressedFreq":2,"CancelPressedFreq":0,"PhotoToCenterFreq":0,"TriggerPressedTimeStamps":[1632409150.417482],"CancelPressedTimeStamps":[],"PhotoToCenterTimeStamps":[],"PhotoReleasedTimeStamps":[],"ParticipantPosition":{"x":30.087936401367189,"y":1.166198968887329,"z":177.77427673339845},"ParticipantRotation":{"x":0.010096541605889798,"y":0.9582736492156982,"z":0.042308058589696887,"w":-0.2825239598751068},"PointerPosition":{"x":29.82354736328125,"y":0.6341798305511475,"z":177.82102966308595},"PointerRotation":{"x":355.1206970214844,"y":252.45230102539063,"z":17.39248275756836},"PointerRotationQuaternion":{"x":-0.1467246264219284,"y":-0.7928905487060547,"z":0.05532822757959366,"w":0.5888423323631287},"PointerDirection":{"x":-0.9500110745429993,"y":0.08505688607692719,"z":-0.3004070222377777},"TargetBuildingName":"TaskBuilding_37","TargetBuildingPosition":{"x":-43.78580856323242,"y":-4.851409912109375,"z":-203.1201171875},"TargetBuildingRotation":{"x":2.9802322387695315e-8,"y":0.29550158977508547,"z":-8.940696716308594e-8,"w":0.9553422927856445},"TargetBuildingForward":{"x":0.5646103620529175,"y":-1.0978263986771708e-7,"z":0.8253576159477234},"DistanceToParticipant":388.1560363769531,"PointedDirections":[{"x":-0.9500110745429993,"y":0.08505688607692719,"z":-0.3004070222377777}]},
{"TrialNumber":34,"ImageIndexNumber":29,"ImageName":"15_CmANo","TimeOut":false,"TimeStampBegin":1632409151.129241,"TimeStampEnd":1632409154.048202,"RT":2.9189610481262209,"Angle":86.75762176513672,"TriggerPressedFreq":2,"CancelPressedFreq":0,"PhotoToCenterFreq":0,"TriggerPressedTimeStamps":[1632409153.6032892],"CancelPressedTimeStamps":[],"PhotoToCenterTimeStamps":[],"PhotoReleasedTimeStamps":[],"ParticipantPosition":{"x":30.034439086914064,"y":1.1644232273101807,"z":177.79141235351563},"ParticipantRotation":{"x":-0.037891238927841189,"y":-0.8195890784263611,"z":-0.055097680538892749,"w":0.5690363049507141},"PointerPosition":{"x":29.921356201171876,"y":0.6451866626739502,"z":178.0652313232422},"PointerRotation":{"x":351.6107177734375,"y":308.773193359375,"z":16.996549606323243},"PointerRotationQuaternion":{"x":-0.12894636392593385,"y":-0.41665780544281008,"z":0.10162748396396637,"w":0.8941146731376648},"PointerDirection":{"x":-0.7712886929512024,"y":0.14589790999889375,"z":0.6195381879806519},"TargetBuildingName":"TaskBuilding_42","TargetBuildingPosition":{"x":-134.4729766845703,"y":0.9746377468109131,"z":-4.413402080535889},"TargetBuildingRotation":{"x":0.2995321750640869,"y":0.6405312418937683,"z":-0.6405314803123474,"w":0.29953229427337649},"TargetBuildingForward":{"x":2.9802322387695315e-8,"y":-1.0,"z":4.3213367462158205e-7},"DistanceToParticipant":245.6110382080078,"PointedDirections":[{"x":-0.7712886929512024,"y":0.14589790999889375,"z":0.6195381879806519}]},
{"TrialNumber":35,"ImageIndexNumber":72,"ImageName":"37_Sa","TimeOut":false,"TimeStampBegin":1632409154.3135615,"TimeStampEnd":1632409155.930026,"RT":1.616464614868164,"Angle":159.45314025878907,"TriggerPressedFreq":2,"CancelPressedFreq":0,"PhotoToCenterFreq":0,"TriggerPressedTimeStamps":[1632409155.5699297],"CancelPressedTimeStamps":[],"PhotoToCenterTimeStamps":[],"PhotoReleasedTimeStamps":[],"ParticipantPosition":{"x":30.014999389648439,"y":1.1662895679473878,"z":177.83590698242188},"ParticipantRotation":{"x":-0.07054592669010163,"y":-0.5307780504226685,"z":-0.0283981841057539,"w":0.8440921306610107},"PointerPosition":{"x":29.8411865234375,"y":0.6427772045135498,"z":177.8875732421875},"PointerRotation":{"x":352.1811828613281,"y":262.8074645996094,"z":16.166488647460939},"PointerRotationQuaternion":{"x":-0.14986592531204225,"y":-0.7345475554466248,"z":0.04214777052402496,"w":0.6604571342468262},"PointerDirection":{"x":-0.9829073548316956,"y":0.13604095578193665,"z":-0.12403987348079682},"TargetBuildingName":"TaskBuilding_19","TargetBuildingPosition":{"x":105.5721206665039,"y":-1.685760498046875,"z":217.71360778808595},"TargetBuildingRotation":{"x":-3.725290298461914e-9,"y":0.9971811175346375,"z":-1.7881393432617188e-7,"w":0.07503241300582886},"TargetBuildingForward":{"x":0.14964181184768678,"y":-3.560607240160607e-7,"z":-0.9887403249740601},"DistanceToParticipant":85.34649658203125,"PointedDirections":[{"x":-0.9829073548316956,"y":0.13604095578193665,"z":-0.12403987348079682}]},
{"TrialNumber":36,"ImageIndexNumber":28,"ImageName":"15_CmA","TimeOut":false,"TimeStampBegin":1632409156.2038172,"TimeStampEnd":1632409159.7229379,"RT":3.519120693206787,"Angle":179.5293731689453,"TriggerPressedFreq":2,"CancelPressedFreq":0,"PhotoToCenterFreq":0,"TriggerPressedTimeStamps":[1632409159.4555939],"CancelPressedTimeStamps":[],"PhotoToCenterTimeStamps":[],"PhotoReleasedTimeStamps":[],"ParticipantPosition":{"x":30.044525146484376,"y":1.1677885055541993,"z":177.799072265625},"ParticipantRotation":{"x":-0.06132735684514046,"y":-0.7589038014411926,"z":-0.06082618236541748,"w":0.6454487442970276},"PointerPosition":{"x":30.334518432617189,"y":0.6598618030548096,"z":177.96653747558595},"PointerRotation":{"x":349.8087158203125,"y":42.572731018066409,"z":18.705158233642579},"PointerRotationQuaternion":{"x":-0.02289656363427639,"y":0.37023717164993288,"z":0.18263930082321168,"w":0.9105179905891419},"PointerDirection":{"x":0.6658515930175781,"y":0.17693518102169038,"z":0.7248003482818604},"TargetBuildingName":"TaskBuilding_42","TargetBuildingPosition":{"x":-134.4729766845703,"y":0.9746377468109131,"z":-4.413402080535889},"TargetBuildingRotation":{"x":0.2995321750640869,"y":0.6405312418937683,"z":-0.6405314803123474,"w":0.29953229427337649},"TargetBuildingForward":{"x":2.9802322387695315e-8,"y":-1.0,"z":4.3213367462158205e-7},"DistanceToParticipant":245.6110382080078,"PointedDirections":[{"x":0.6658515930175781,"y":0.17693518102169038,"z":0.7248003482818604}]},
{"TrialNumber":37,"ImageIndexNumber":53,"ImageName":"27_CmANo","TimeOut":false,"TimeStampBegin":1632409160.9664102,"TimeStampEnd":1632409162.838315,"RT":1.8719048500061036,"Angle":153.5080108642578,"TriggerPressedFreq":2,"CancelPressedFreq":0,"PhotoToCenterFreq":0,"TriggerPressedTimeStamps":[1632409162.4628428],"CancelPressedTimeStamps":[],"PhotoToCenterTimeStamps":[],"PhotoReleasedTimeStamps":[],"ParticipantPosition":{"x":-33.29936218261719,"y":-2.7893683910369875,"z":-190.51422119140626},"ParticipantRotation":{"x":-0.07919026166200638,"y":0.4617113471031189,"z":0.03933250531554222,"w":0.8826123476028442},"PointerPosition":{"x":-33.05934143066406,"y":-3.3165767192840578,"z":-190.5594482421875},"PointerRotation":{"x":355.308837890625,"y":71.63449096679688,"z":17.03497886657715},"PointerRotationQuaternion":{"x":0.053781360387802127,"y":0.5831778645515442,"z":0.14368727803230287,"w":0.7977249622344971},"PointerDirection":{"x":0.945886492729187,"y":0.08178501576185227,"z":0.3140223026275635},"TargetBuildingName":"Crane_59","TargetBuildingPosition":{"x":-313.49945068359377,"y":1.6149444580078126,"z":-150.51466369628907},"TargetBuildingRotation":{"x":0.0,"y":0.1220962405204773,"z":-2.9802322387695315e-8,"w":0.9925183057785034},"TargetBuildingForward":{"x":0.2423655092716217,"y":-7.277503044633704e-9,"z":0.9701850414276123},"DistanceToParticipant":283.0501708984375,"PointedDirections":[{"x":0.945886492729187,"y":0.08178501576185227,"z":0.3140223026275635}]},
{"TrialNumber":38,"ImageIndexNumber":38,"ImageName":"20_CmA","TimeOut":false,"TimeStampBegin":1632409163.110123,"TimeStampEnd":1632409166.2383955,"RT":3.128272533416748,"Angle":37.853851318359378,"TriggerPressedFreq":2,"CancelPressedFreq":0,"PhotoToCenterFreq":0,"TriggerPressedTimeStamps":[1632409165.888716],"CancelPressedTimeStamps":[],"PhotoToCenterTimeStamps":[],"PhotoReleasedTimeStamps":[],"ParticipantPosition":{"x":-33.28919982910156,"y":-2.7912020683288576,"z":-190.52911376953126},"ParticipantRotation":{"x":-0.07557734102010727,"y":0.5529725551605225,"z":0.03588477149605751,"w":0.8289883732795715},"PointerPosition":{"x":-33.22758483886719,"y":-3.302119731903076,"z":-190.34066772460938},"PointerRotation":{"x":350.9966735839844,"y":5.708446979522705,"z":15.674271583557129},"PointerRotationQuaternion":{"x":-0.0708894431591034,"y":0.05986687168478966,"z":0.1396401822566986,"w":0.9858454465866089},"PointerDirection":{"x":0.0982409417629242,"y":0.1564917117357254,"z":0.9827812910079956},"TargetBuildingName":"BasketballCourt_58","TargetBuildingPosition":{"x":104.33999633789063,"y":-3.069999933242798,"z":-45.689998626708987},"TargetBuildingRotation":{"x":0.0,"y":-0.3535807430744171,"z":0.0,"w":0.9354040622711182},"TargetBuildingForward":{"x":-0.6614817380905151,"y":0.0,"z":0.7499613165855408},"DistanceToParticipant":199.83084106445313,"PointedDirections":[{"x":0.0982409417629242,"y":0.1564917117357254,"z":0.9827812910079956}]},
{"TrialNumber":39,"ImageIndexNumber":12,"ImageName":"07_CmA","TimeOut":false,"TimeStampBegin":1632409166.5186353,"TimeStampEnd":1632409169.5620924,"RT":3.04345703125,"Angle":48.74900817871094,"TriggerPressedFreq":2,"CancelPressedFreq":0,"PhotoToCenterFreq":0,"TriggerPressedTimeStamps":[1632409168.5740596],"CancelPressedTimeStamps":[],"PhotoToCenterTimeStamps":[],"PhotoReleasedTimeStamps":[],"ParticipantPosition":{"x":-33.36073303222656,"y":-2.7883589267730715,"z":-190.51895141601563},"ParticipantRotation":{"x":-0.09544428437948227,"y":0.060569677501916888,"z":-0.004166415426880121,"w":0.9935815930366516},"PointerPosition":{"x":-33.07054138183594,"y":-3.3021061420440676,"z":-190.66732788085938},"PointerRotation":{"x":348.9281921386719,"y":101.43534851074219,"z":15.001744270324707},"PointerRotationQuaternion":{"x":0.04001616686582565,"y":0.7718061208724976,"z":0.1562974452972412,"w":0.615048885345459},"PointerDirection":{"x":0.961905837059021,"y":0.19203884899616242,"z":-0.19457200169563294},"TargetBuildingName":"TaskBuilding_9","TargetBuildingPosition":{"x":375.8138122558594,"y":-2.2880401611328127,"z":120.9730453491211},"TargetBuildingRotation":{"x":-4.470348358154297e-8,"y":0.9363456964492798,"z":-2.682209014892578e-7,"w":-0.3510795831680298},"TargetBuildingForward":{"x":-0.6574637293815613,"y":-5.336839308256458e-7,"z":-0.7534865140914917},"DistanceToParticipant":514.2373657226563,"PointedDirections":[{"x":0.961905837059021,"y":0.19203884899616242,"z":-0.19457200169563294}]},
{"TrialNumber":40,"ImageIndexNumber":66,"ImageName":"34_Sa","TimeOut":false,"TimeStampBegin":1632409169.8294364,"TimeStampEnd":1632409173.3054045,"RT":3.4759681224823,"Angle":104.97711944580078,"TriggerPressedFreq":2,"CancelPressedFreq":0,"PhotoToCenterFreq":0,"TriggerPressedTimeStamps":[1632409172.7741883],"CancelPressedTimeStamps":[],"PhotoToCenterTimeStamps":[],"PhotoReleasedTimeStamps":[],"ParticipantPosition":{"x":-33.30381774902344,"y":-2.7884397506713869,"z":-190.5487060546875},"ParticipantRotation":{"x":-0.08582983911037445,"y":0.6896941661834717,"z":0.051640771329402927,"w":0.7171391248703003},"PointerPosition":{"x":-33.25859069824219,"y":-3.332118511199951,"z":-190.86529541015626},"PointerRotation":{"x":358.2059020996094,"y":159.0556182861328,"z":8.956157684326172},"PointerRotationQuaternion":{"x":0.07393088191747666,"y":0.9804434180259705,"z":0.029537484049797059,"w":0.17997924983501435},"PointerDirection":{"x":0.3572864234447479,"y":0.03130761533975601,"z":-0.9334701895713806},"TargetBuildingName":"TaskBuilding_15","TargetBuildingPosition":{"x":259.6925964355469,"y":-1.6610603332519532,"z":21.363605499267579},"TargetBuildingRotation":{"x":-2.9802322387695315e-8,"y":0.07599546760320664,"z":-1.4901161193847657e-8,"w":0.9971081614494324},"TargetBuildingForward":{"x":0.15155139565467835,"y":5.716743700645566e-8,"z":0.9884493947029114},"DistanceToParticipant":361.6228942871094,"PointedDirections":[{"x":0.3572864234447479,"y":0.03130761533975601,"z":-0.9334701895713806}]},
{"TrialNumber":41,"ImageIndexNumber":97,"ImageName":"49_SaNo","TimeOut":false,"TimeStampBegin":1632409173.5732449,"TimeStampEnd":1632409178.6830374,"RT":5.109792470932007,"Angle":154.22837829589845,"TriggerPressedFreq":2,"CancelPressedFreq":0,"PhotoToCenterFreq":0,"TriggerPressedTimeStamps":[1632409176.6801892],"CancelPressedTimeStamps":[],"PhotoToCenterTimeStamps":[],"PhotoReleasedTimeStamps":[],"ParticipantPosition":{"x":-33.27433776855469,"y":-2.7863478660583498,"z":-190.61398315429688},"ParticipantRotation":{"x":-0.03831227123737335,"y":0.952854573726654,"z":0.10952618718147278,"w":0.2803646922111511},"PointerPosition":{"x":-33.42085266113281,"y":-3.3337759971618654,"z":-190.86257934570313},"PointerRotation":{"x":359.85980224609377,"y":189.6205291748047,"z":6.673974990844727},"PointerRotationQuaternion":{"x":-0.05810585245490074,"y":-0.9947815537452698,"z":0.00366414338350296,"w":0.08378515392541886},"PointerDirection":{"x":-0.16712166368961335,"y":0.0024467711336910726,"z":-0.9859333038330078},"TargetBuildingName":"TaskBuilding_39","TargetBuildingPosition":{"x":-69.55218505859375,"y":-1.5228500366210938,"z":-66.10023498535156},"TargetBuildingRotation":{"x":-1.4901161193847657e-8,"y":0.9173068404197693,"z":-2.384185791015625e-7,"w":0.39818111062049868},"TargetBuildingForward":{"x":0.7305085062980652,"y":-4.255392695995397e-7,"z":-0.6829036474227905},"DistanceToParticipant":129.5961151123047,"PointedDirections":[{"x":-0.16712166368961335,"y":0.0024467711336910726,"z":-0.9859333038330078}]},
{"TrialNumber":42,"ImageIndexNumber":36,"ImageName":"19_CmA","TimeOut":false,"TimeStampBegin":1632409178.9493902,"TimeStampEnd":1632409182.7348629,"RT":3.7854726314544679,"Angle":143.64602661132813,"TriggerPressedFreq":2,"CancelPressedFreq":0,"PhotoToCenterFreq":0,"TriggerPressedTimeStamps":[1632409182.3906389],"CancelPressedTimeStamps":[],"PhotoToCenterTimeStamps":[],"PhotoReleasedTimeStamps":[],"ParticipantPosition":{"x":-33.31901550292969,"y":-2.791930913925171,"z":-190.63592529296876},"ParticipantRotation":{"x":-0.005265782121568918,"y":0.9975308775901794,"z":0.06994149833917618,"w":-0.003555964445695281},"PointerPosition":{"x":-33.54441833496094,"y":-3.3259682655334474,"z":-190.78097534179688},"PointerRotation":{"x":358.19091796875,"y":215.89456176757813,"z":8.493718147277832},"PointerRotationQuaternion":{"x":-0.07529274374246597,"y":-0.9482498168945313,"z":0.007839157246053219,"w":0.30836960673332217},"PointerDirection":{"x":-0.586003303527832,"y":0.03156902641057968,"z":-0.809693455696106},"TargetBuildingName":"TaskBuilding_34","TargetBuildingPosition":{"x":-36.169708251953128,"y":0.444427490234375,"z":136.62149047851563},"TargetBuildingRotation":{"x":-2.9802322387695315e-8,"y":0.559095025062561,"z":-1.1920928955078126e-7,"w":0.8291035890579224},"TargetBuildingForward":{"x":0.9270954132080078,"y":-8.388021655036937e-8,"z":0.37482547760009768},"DistanceToParticipant":327.17437744140627,"PointedDirections":[{"x":-0.586003303527832,"y":0.03156902641057968,"z":-0.809693455696106}]},
{"TrialNumber":43,"ImageIndexNumber":9,"ImageName":"05_CmANo","TimeOut":false,"TimeStampBegin":1632409183.0012136,"TimeStampEnd":1632409186.165695,"RT":3.1644814014434816,"Angle":75.35874938964844,"TriggerPressedFreq":2,"CancelPressedFreq":0,"PhotoToCenterFreq":0,"TriggerPressedTimeStamps":[1632409185.776831],"CancelPressedTimeStamps":[],"PhotoToCenterTimeStamps":[],"PhotoReleasedTimeStamps":[],"ParticipantPosition":{"x":-33.34074401855469,"y":-2.7894949913024904,"z":-190.64022827148438},"ParticipantRotation":{"x":0.016573220491409303,"y":0.9658641815185547,"z":0.08670210838317871,"w":-0.24354559183120728},"PointerPosition":{"x":-33.62312316894531,"y":-3.3223519325256349,"z":-190.5439453125},"PointerRotation":{"x":355.58258056640627,"y":271.5224609375,"z":9.958905220031739},"PointerRotationQuaternion":{"x":-0.08801709860563278,"y":-0.6921041011810303,"z":0.03535384684801102,"w":0.7155382633209229},"PointerDirection":{"x":-0.9966774582862854,"y":0.07702212035655976,"z":0.026489824056625367},"TargetBuildingName":"Construction_57","TargetBuildingPosition":{"x":-71.80340576171875,"y":0.5511384606361389,"z":-26.717416763305665},"TargetBuildingRotation":{"x":-0.6383030414581299,"y":-0.3042520582675934,"z":-0.30425211787223818,"w":0.6383029222488403},"TargetBuildingForward":{"x":1.4901161193847657e-7,"y":1.0000001192092896,"z":-1.6391277313232423e-7},"DistanceToParticipant":168.3126678466797,"PointedDirections":[{"x":-0.9966774582862854,"y":0.07702212035655976,"z":0.026489824056625367}]},
{"TrialNumber":44,"ImageIndexNumber":55,"ImageName":"28_CmANo","TimeOut":false,"TimeStampBegin":1632409186.4325433,"TimeStampEnd":1632409189.7487987,"RT":3.3162553310394289,"Angle":59.76218032836914,"TriggerPressedFreq":2,"CancelPressedFreq":0,"PhotoToCenterFreq":0,"TriggerPressedTimeStamps":[1632409189.3425756],"CancelPressedTimeStamps":[],"PhotoToCenterTimeStamps":[],"PhotoReleasedTimeStamps":[],"ParticipantPosition":{"x":-33.39927673339844,"y":-2.790889024734497,"z":-190.62240600585938},"ParticipantRotation":{"x":-0.047191835939884189,"y":-0.7716410756111145,"z":-0.07296036928892136,"w":0.6300950646400452},"PointerPosition":{"x":-33.52140808105469,"y":-3.325035333633423,"z":-190.3609619140625},"PointerRotation":{"x":355.6407165527344,"y":310.224853515625,"z":10.378826141357422},"PointerRotationQuaternion":{"x":-0.07239624857902527,"y":-0.41569021344184878,"z":0.06604963541030884,"w":0.9042112231254578},"PointerDirection":{"x":-0.7613070011138916,"y":0.07601062953472138,"z":0.6439208388328552},"TargetBuildingName":"Church-TaskBuilding_16","TargetBuildingPosition":{"x":0.0,"y":0.000032424919481854886,"z":0.000045776359911542386},"TargetBuildingRotation":{"x":0.0,"y":2.1073422118433883e-8,"z":-3.188461050740443e-8,"w":1.0},"TargetBuildingForward":{"x":4.2146844236867767e-8,"y":-1.3438356643899583e-15,"z":1.0},"DistanceToParticipant":193.4522247314453,"PointedDirections":[{"x":-0.7613070011138916,"y":0.07601062953472138,"z":0.6439208388328552}]},
{"TrialNumber":45,"ImageIndexNumber":72,"ImageName":"37_Sa","TimeOut":false,"TimeStampBegin":1632409190.0176316,"TimeStampEnd":1632409191.9490553,"RT":1.9314236640930176,"Angle":89.87698364257813,"TriggerPressedFreq":2,"CancelPressedFreq":0,"PhotoToCenterFreq":0,"TriggerPressedTimeStamps":[1632409191.6023515],"CancelPressedTimeStamps":[],"PhotoToCenterTimeStamps":[],"PhotoReleasedTimeStamps":[],"ParticipantPosition":{"x":-33.40547180175781,"y":-2.787687063217163,"z":-190.57528686523438},"ParticipantRotation":{"x":-0.08003267645835877,"y":-0.4750179946422577,"z":-0.04854791238903999,"w":0.8749833106994629},"PointerPosition":{"x":-33.57814025878906,"y":-3.316495895385742,"z":-190.44451904296876},"PointerRotation":{"x":354.4399108886719,"y":288.94842529296877,"z":10.425196647644043},"PointerRotationQuaternion":{"x":-0.09203915297985077,"y":-0.5743991136550903,"z":0.04578645899891853,"w":0.8120948672294617},"PointerDirection":{"x":-0.9413614273071289,"y":0.09688964486122132,"z":0.3231889307498932},"TargetBuildingName":"TaskBuilding_19","TargetBuildingPosition":{"x":105.5721206665039,"y":-1.685760498046875,"z":217.71360778808595},"TargetBuildingRotation":{"x":-3.725290298461914e-9,"y":0.9971811175346375,"z":-1.7881393432617188e-7,"w":0.07503241300582886},"TargetBuildingForward":{"x":0.14964181184768678,"y":-3.560607240160607e-7,"z":-0.9887403249740601},"DistanceToParticipant":431.21917724609377,"PointedDirections":[{"x":-0.9413614273071289,"y":0.09688964486122132,"z":0.3231889307498932}]},
{"TrialNumber":46,"ImageIndexNumber":29,"ImageName":"15_CmANo","TimeOut":false,"TimeStampBegin":1632409192.2203673,"TimeStampEnd":1632409194.803039,"RT":2.582671880722046,"Angle":16.03795623779297,"TriggerPressedFreq":2,"CancelPressedFreq":0,"PhotoToCenterFreq":0,"TriggerPressedTimeStamps":[1632409194.3303524],"CancelPressedTimeStamps":[],"PhotoToCenterTimeStamps":[],"PhotoReleasedTimeStamps":[],"ParticipantPosition":{"x":-33.40040588378906,"y":-2.7873997688293459,"z":-190.59487915039063},"ParticipantRotation":{"x":-0.07689280807971955,"y":-0.5765015482902527,"z":-0.0576125830411911,"w":0.8114273548126221},"PointerPosition":{"x":-33.35145568847656,"y":-3.3176827430725099,"z":-190.2957763671875},"PointerRotation":{"x":353.87933349609377,"y":347.49139404296877,"z":11.620074272155762},"PointerRotationQuaternion":{"x":-0.06380961835384369,"y":-0.10285501182079315,"z":0.09469832479953766,"w":0.9881201386451721},"PointerDirection":{"x":-0.21535155177116395,"y":0.10662274062633515,"z":0.970698356628418},"TargetBuildingName":"TaskBuilding_42","TargetBuildingPosition":{"x":-134.4729766845703,"y":0.9746377468109131,"z":-4.413402080535889},"TargetBuildingRotation":{"x":0.2995321750640869,"y":0.6405312418937683,"z":-0.6405314803123474,"w":0.29953229427337649},"TargetBuildingForward":{"x":2.9802322387695315e-8,"y":-1.0,"z":4.3213367462158205e-7},"DistanceToParticipant":211.85873413085938,"PointedDirections":[{"x":-0.21535155177116395,"y":0.10662274062633515,"z":0.970698356628418}]},
{"TrialNumber":47,"ImageIndexNumber":82,"ImageName":"42_Sa","TimeOut":false,"TimeStampBegin":1632409195.0693918,"TimeStampEnd":1632409198.4937764,"RT":3.424384593963623,"Angle":6.636164665222168,"TriggerPressedFreq":2,"CancelPressedFreq":0,"PhotoToCenterFreq":0,"TriggerPressedTimeStamps":[1632409198.099456],"CancelPressedTimeStamps":[],"PhotoToCenterTimeStamps":[],"PhotoReleasedTimeStamps":[],"ParticipantPosition":{"x":-33.39042663574219,"y":-2.791402578353882,"z":-190.53155517578126},"ParticipantRotation":{"x":-0.07307370752096176,"y":-0.18775151669979096,"z":-0.01368703506886959,"w":0.9793989658355713},"PointerPosition":{"x":-33.11277770996094,"y":-3.3101577758789064,"z":-190.41946411132813},"PointerRotation":{"x":353.7197265625,"y":43.03666305541992,"z":11.566869735717774},"PointerRotationQuaternion":{"x":-0.013794486410915852,"y":0.36951911449432375,"z":0.11359468102455139,"w":0.9221505522727966},"PointerDirection":{"x":0.6783705353736877,"y":0.10939199477434159,"z":0.7265306711196899},"TargetBuildingName":"TaskBuilding_28","TargetBuildingPosition":{"x":71.65252685546875,"y":-2.8223953247070314,"z":-48.32182312011719},"TargetBuildingRotation":{"x":2.9802322387695315e-8,"y":0.9320754408836365,"z":-1.7881393432617188e-7,"w":-0.3622642457485199},"TargetBuildingForward":{"x":-0.6753152012825012,"y":-3.1174351988738638e-7,"z":-0.7375292778015137},"DistanceToParticipant":176.7613525390625,"PointedDirections":[{"x":0.6783705353736877,"y":0.10939199477434159,"z":0.7265306711196899}]},
{"TrialNumber":48,"ImageIndexNumber":96,"ImageName":"49_Sa","TimeOut":false,"TimeStampBegin":1632409198.7626096,"TimeStampEnd":1632409201.2788163,"RT":2.516206741333008,"Angle":29.172359466552736,"TriggerPressedFreq":2,"CancelPressedFreq":0,"PhotoToCenterFreq":0,"TriggerPressedTimeStamps":[1632409200.9018565],"CancelPressedTimeStamps":[],"PhotoToCenterTimeStamps":[],"PhotoReleasedTimeStamps":[],"ParticipantPosition":{"x":-33.33055114746094,"y":-2.778733253479004,"z":-190.54666137695313},"ParticipantRotation":{"x":-0.10434794425964356,"y":0.2976052463054657,"z":0.028973033651709558,"w":0.948526918888092},"PointerPosition":{"x":-33.20820617675781,"y":-3.318146228790283,"z":-190.341552734375},"PointerRotation":{"x":354.4969787597656,"y":12.866714477539063,"z":10.510611534118653},"PointerRotationQuaternion":{"x":-0.03725065290927887,"y":0.11581707000732422,"z":0.09626828879117966,"w":0.9878923296928406},"PointerDirection":{"x":0.22165748476982118,"y":0.09589829295873642,"z":0.9703975915908814},"TargetBuildingName":"TaskBuilding_39","TargetBuildingPosition":{"x":-69.55218505859375,"y":-1.5228500366210938,"z":-66.10023498535156},"TargetBuildingRotation":{"x":-1.4901161193847657e-8,"y":0.9173068404197693,"z":-2.384185791015625e-7,"w":0.39818111062049868},"TargetBuildingForward":{"x":0.7305085062980652,"y":-4.255392695995397e-7,"z":-0.6829036474227905},"DistanceToParticipant":129.5961151123047,"PointedDirections":[{"x":0.22165748476982118,"y":0.09589829295873642,"z":0.9703975915908814}]},
{"TrialNumber":49,"ImageIndexNumber":39,"ImageName":"20_CmANo","TimeOut":false,"TimeStampBegin":1632409202.5292335,"TimeStampEnd":1632409204.1402412,"RT":1.6110076904296876,"Angle":16.592609405517579,"TriggerPressedFreq":2,"CancelPressedFreq":0,"PhotoToCenterFreq":0,"TriggerPressedTimeStamps":[1632409203.7697287],"CancelPressedTimeStamps":[],"PhotoToCenterTimeStamps":[],"PhotoReleasedTimeStamps":[],"ParticipantPosition":{"x":-114.31355285644531,"y":0.038977622985839847,"z":-139.55990600585938},"ParticipantRotation":{"x":-0.09632516652345658,"y":0.22653593122959138,"z":0.002595919882878661,"w":0.9692245721817017},"PointerPosition":{"x":-114.06602478027344,"y":-0.4938385486602783,"z":-139.48287963867188},"PointerRotation":{"x":355.1389465332031,"y":50.16664123535156,"z":10.097798347473145},"PointerRotationQuaternion":{"x":-0.000984162325039506,"y":0.42529115080833437,"z":0.09754303842782974,"w":0.8997843265533447},"PointerDirection":{"x":0.7651486396789551,"y":0.08473945409059525,"z":0.6382529735565186},"TargetBuildingName":"BasketballCourt_58","TargetBuildingPosition":{"x":104.33999633789063,"y":-3.069999933242798,"z":-45.689998626708987},"TargetBuildingRotation":{"x":0.0,"y":-0.3535807430744171,"z":0.0,"w":0.9354040622711182},"TargetBuildingForward":{"x":-0.6614817380905151,"y":0.0,"z":0.7499613165855408},"DistanceToParticipant":237.95791625976563,"PointedDirections":[{"x":0.7651486396789551,"y":0.08473945409059525,"z":0.6382529735565186}]},
{"TrialNumber":50,"ImageIndexNumber":69,"ImageName":"35_SaNo","TimeOut":false,"TimeStampBegin":1632409204.4150253,"TimeStampEnd":1632409206.1430906,"RT":1.7280652523040772,"Angle":42.07223892211914,"TriggerPressedFreq":2,"CancelPressedFreq":0,"PhotoToCenterFreq":0,"TriggerPressedTimeStamps":[1632409205.86037],"CancelPressedTimeStamps":[],"PhotoToCenterTimeStamps":[],"PhotoReleasedTimeStamps":[],"ParticipantPosition":{"x":-114.30067443847656,"y":0.03670644760131836,"z":-139.5567626953125},"ParticipantRotation":{"x":-0.08845938742160797,"y":0.38967859745025637,"z":0.02571091800928116,"w":0.9163321256637573},"PointerPosition":{"x":-114.12477111816406,"y":-0.48988819122314455,"z":-139.40771484375},"PointerRotation":{"x":353.7234802246094,"y":29.934768676757814,"z":10.308772087097168},"PointerRotationQuaternion":{"x":-0.029506444931030275,"y":0.26159051060676577,"z":0.10074351727962494,"w":0.959453284740448},"PointerDirection":{"x":0.4960225522518158,"y":0.10932720452547074,"z":0.8613995313644409},"TargetBuildingName":"TaskBuilding_12","TargetBuildingPosition":{"x":401.8287353515625,"y":-2.357715606689453,"z":28.165992736816408},"TargetBuildingRotation":{"x":-2.9802322387695315e-8,"y":-0.3356735110282898,"z":5.960464477539063e-8,"w":0.941978394985199},"TargetBuildingForward":{"x":-0.6323943734169006,"y":1.6130886848486626e-8,"z":0.7746465802192688},"DistanceToParticipant":542.7152099609375,"PointedDirections":[{"x":0.4960225522518158,"y":0.10932720452547074,"z":0.8613995313644409}]},
{"TrialNumber":51,"ImageIndexNumber":74,"ImageName":"38_Sa","TimeOut":false,"TimeStampBegin":1632409206.4099377,"TimeStampEnd":1632409209.0060025,"RT":2.596064805984497,"Angle":101.24996185302735,"TriggerPressedFreq":2,"CancelPressedFreq":0,"PhotoToCenterFreq":0,"TriggerPressedTimeStamps":[1632409208.6503707],"CancelPressedTimeStamps":[],"PhotoToCenterTimeStamps":[],"PhotoReleasedTimeStamps":[],"ParticipantPosition":{"x":-114.31541442871094,"y":0.03636503219604492,"z":-139.5511474609375},"ParticipantRotation":{"x":-0.09251103550195694,"y":0.23062053322792054,"z":0.009743980132043362,"w":0.9685871005058289},"PointerPosition":{"x":-114.32679748535156,"y":-0.4806180000305176,"z":-139.36639404296876},"PointerRotation":{"x":354.01629638671877,"y":329.1741943359375,"z":10.15589427947998},"PointerRotationQuaternion":{"x":-0.07361122965812683,"y":-0.2599157392978668,"z":0.07139401882886887,"w":0.9601708650588989},"PointerDirection":{"x":-0.5096378326416016,"y":0.1042458564043045,"z":0.8540503978729248},"TargetBuildingName":"TaskBuilding_22","TargetBuildingPosition":{"x":144.64942932128907,"y":-2.9686622619628908,"z":-47.27207565307617},"TargetBuildingRotation":{"x":-2.9802322387695315e-8,"y":0.4169551134109497,"z":-4.470348358154297e-8,"w":0.9089270830154419},"TargetBuildingForward":{"x":0.7579635977745056,"y":1.6897583776653847e-8,"z":0.6522968411445618},"DistanceToParticipant":274.92303466796877,"PointedDirections":[{"x":-0.5096378326416016,"y":0.1042458564043045,"z":0.8540503978729248}]},
{"TrialNumber":52,"ImageIndexNumber":69,"ImageName":"35_SaNo","TimeOut":false,"TimeStampBegin":1632409209.2748347,"TimeStampEnd":1632409224.2833007,"RT":15.008466005325318,"Angle":94.93156433105469,"TriggerPressedFreq":2,"CancelPressedFreq":0,"PhotoToCenterFreq":0,"TriggerPressedTimeStamps":[1632409223.9832199],"CancelPressedTimeStamps":[],"PhotoToCenterTimeStamps":[],"PhotoReleasedTimeStamps":[],"ParticipantPosition":{"x":-114.35377502441406,"y":0.03772091865539551,"z":-139.56729125976563},"ParticipantRotation":{"x":-0.08785828948020935,"y":-0.22517822682857514,"z":-0.03609839081764221,"w":0.9696765542030335},"PointerPosition":{"x":-114.35469055175781,"y":-0.496179461479187,"z":-139.35055541992188},"PointerRotation":{"x":356.99951171875,"y":337.08868408203127,"z":9.14155101776123},"PointerRotationQuaternion":{"x":-0.04140001907944679,"y":-0.19586516916751862,"z":0.07289285212755203,"w":0.9770412445068359},"PointerDirection":{"x":-0.38877221941947939,"y":0.052344709634780887,"z":0.9198457598686218},"TargetBuildingName":"TaskBuilding_12","TargetBuildingPosition":{"x":401.8287353515625,"y":-2.357715606689453,"z":28.165992736816408},"TargetBuildingRotation":{"x":-2.9802322387695315e-8,"y":-0.3356735110282898,"z":5.960464477539063e-8,"w":0.941978394985199},"TargetBuildingForward":{"x":-0.6323943734169006,"y":1.6130886848486626e-8,"z":0.7746465802192688},"DistanceToParticipant":542.7152099609375,"PointedDirections":[{"x":-0.38877221941947939,"y":0.052344709634780887,"z":0.9198457598686218}]},
{"TrialNumber":53,"ImageIndexNumber":86,"ImageName":"44_Sa","TimeOut":false,"TimeStampBegin":1632409224.554116,"TimeStampEnd":1632409226.8282767,"RT":2.274160623550415,"Angle":35.05167007446289,"TriggerPressedFreq":2,"CancelPressedFreq":0,"PhotoToCenterFreq":0,"TriggerPressedTimeStamps":[1632409226.5703567],"CancelPressedTimeStamps":[],"PhotoToCenterTimeStamps":[],"PhotoReleasedTimeStamps":[],"ParticipantPosition":{"x":-114.35374450683594,"y":0.03782534599304199,"z":-139.57757568359376},"ParticipantRotation":{"x":-0.0826641246676445,"y":-0.24195276200771333,"z":-0.03039746731519699,"w":0.966282308101654},"PointerPosition":{"x":-114.01240539550781,"y":-0.4923919439315796,"z":-139.54583740234376},"PointerRotation":{"x":356.0533142089844,"y":75.80073547363281,"z":5.879745006561279},"PointerRotationQuaternion":{"x":0.004351083189249039,"y":0.6145115494728088,"z":0.06157131493091583,"w":0.7864894270896912},"PointerDirection":{"x":0.9671494364738464,"y":0.06882840394973755,"z":0.24471323192119599},"TargetBuildingName":"TaskBuilding_31","TargetBuildingPosition":{"x":5.910362243652344,"y":-0.844291090965271,"z":-0.3640211522579193},"TargetBuildingRotation":{"x":2.9802322387695315e-8,"y":0.9640944600105286,"z":-1.7881393432617188e-7,"w":0.2655594050884247},"TargetBuildingForward":{"x":0.5120487213134766,"y":-3.606156155910867e-7,"z":-0.8589562177658081},"DistanceToParticipant":183.917724609375,"PointedDirections":[{"x":0.9671494364738464,"y":0.06882840394973755,"z":0.24471323192119599}]},
{"TrialNumber":54,"ImageIndexNumber":110,"ImageName":"56_Sa","TimeOut":false,"TimeStampBegin":1632409227.0985969,"TimeStampEnd":1632409229.3901177,"RT":2.291520833969116,"Angle":127.53894805908203,"TriggerPressedFreq":2,"CancelPressedFreq":0,"PhotoToCenterFreq":0,"TriggerPressedTimeStamps":[1632409229.0612694],"CancelPressedTimeStamps":[],"PhotoToCenterTimeStamps":[],"PhotoReleasedTimeStamps":[],"ParticipantPosition":{"x":-114.27189636230469,"y":0.051236629486083987,"z":-139.55889892578126},"ParticipantRotation":{"x":-0.1447717547416687,"y":0.5804105401039124,"z":0.10708080232143402,"w":0.794165313243866},"PointerPosition":{"x":-114.02784729003906,"y":-0.49870896339416506,"z":-139.71475219726563},"PointerRotation":{"x":354.4884948730469,"y":111.25008392333985,"z":7.642019748687744},"PointerRotationQuaternion":{"x":0.02785317227244377,"y":0.8243822455406189,"z":0.077175572514534,"w":0.5600553750991821},"PointerDirection":{"x":0.92769855260849,"y":0.09604570269584656,"z":-0.3607637584209442},"TargetBuildingName":"HighSilo-TaskBuilding_49","TargetBuildingPosition":{"x":-240.54354858398438,"y":18.36138916015625,"z":293.24755859375},"TargetBuildingRotation":{"x":-0.7071068286895752,"y":0.0,"z":0.0,"w":0.7071067094802856},"TargetBuildingForward":{"x":0.0,"y":0.9999999403953552,"z":-1.1920928955078126e-7},"DistanceToParticipant":451.2508544921875,"PointedDirections":[{"x":0.92769855260849,"y":0.09604570269584656,"z":-0.3607637584209442}]},
{"TrialNumber":55,"ImageIndexNumber":54,"ImageName":"28_CmA","TimeOut":false,"TimeStampBegin":1632409229.657957,"TimeStampEnd":1632409232.05463,"RT":2.3966729640960695,"Angle":104.6742172241211,"TriggerPressedFreq":2,"CancelPressedFreq":0,"PhotoToCenterFreq":0,"TriggerPressedTimeStamps":[1632409231.699494],"CancelPressedTimeStamps":[],"PhotoToCenterTimeStamps":[],"PhotoReleasedTimeStamps":[],"ParticipantPosition":{"x":-114.25080871582031,"y":0.0426180362701416,"z":-139.58868408203126},"ParticipantRotation":{"x":-0.08778230100870133,"y":0.7645997405052185,"z":0.09368152916431427,"w":0.6315895318984985},"PointerPosition":{"x":-114.13121032714844,"y":-0.49905550479888918,"z":-139.84912109375},"PointerRotation":{"x":353.18475341796877,"y":143.8921661376953,"z":9.504487991333008},"PointerRotationQuaternion":{"x":0.06027146801352501,"y":0.9473477005958557,"z":0.08194828033447266,"w":0.3036184012889862},"PointerDirection":{"x":0.5851426720619202,"y":0.11866797506809235,"z":-0.8022006750106812},"TargetBuildingName":"Church-TaskBuilding_16","TargetBuildingPosition":{"x":0.0,"y":0.000032424919481854886,"z":0.000045776359911542386},"TargetBuildingRotation":{"x":0.0,"y":2.1073422118433883e-8,"z":-3.188461050740443e-8,"w":1.0},"TargetBuildingForward":{"x":4.2146844236867767e-8,"y":-1.3438356643899583e-15,"z":1.0},"DistanceToParticipant":180.3960418701172,"PointedDirections":[{"x":0.5851426720619202,"y":0.11866797506809235,"z":-0.8022006750106812}]},
{"TrialNumber":56,"ImageIndexNumber":30,"ImageName":"16_CmA","TimeOut":false,"TimeStampBegin":1632409232.323463,"TimeStampEnd":1632409248.6051613,"RT":16.28169822692871,"Angle":147.99667358398438,"TriggerPressedFreq":2,"CancelPressedFreq":0,"PhotoToCenterFreq":0,"TriggerPressedTimeStamps":[1632409248.1051915],"CancelPressedTimeStamps":[],"PhotoToCenterTimeStamps":[],"PhotoReleasedTimeStamps":[],"ParticipantPosition":{"x":-114.24708557128906,"y":0.041556358337402347,"z":-139.62396240234376},"ParticipantRotation":{"x":-0.047312915325164798,"y":0.92563396692276,"z":0.11357077211141586,"w":0.35786157846450808},"PointerPosition":{"x":-114.38771057128906,"y":-0.4945805072784424,"z":-139.89190673828126},"PointerRotation":{"x":352.3333435058594,"y":190.06813049316407,"z":7.2441301345825199},"PointerRotationQuaternion":{"x":-0.06864499300718308,"y":-0.9915581345558167,"z":-0.06093228608369827,"w":0.0915839821100235},"PointerDirection":{"x":-0.1732562929391861,"y":0.13340938091278077,"z":-0.9757993817329407},"TargetBuildingName":"TaskBuilding_23","TargetBuildingPosition":{"x":110.38475799560547,"y":-0.6672897338867188,"z":109.11808013916016},"TargetBuildingRotation":{"x":0.0,"y":0.0,"z":0.0,"w":1.0},"TargetBuildingForward":{"x":0.0,"y":0.0,"z":1.0},"DistanceToParticipant":335.14752197265627,"PointedDirections":[{"x":-0.1732562929391861,"y":0.13340938091278077,"z":-0.9757993817329407}]},
{"TrialNumber":57,"ImageIndexNumber":80,"ImageName":"41_Sa","TimeOut":false,"TimeStampBegin":1632409248.8715127,"TimeStampEnd":1632409250.6481846,"RT":1.7766718864440919,"Angle":116.52692413330078,"TriggerPressedFreq":2,"CancelPressedFreq":0,"PhotoToCenterFreq":0,"TriggerPressedTimeStamps":[1632409250.3481053],"CancelPressedTimeStamps":[],"PhotoToCenterTimeStamps":[],"PhotoReleasedTimeStamps":[],"ParticipantPosition":{"x":-114.29942321777344,"y":0.03755784034729004,"z":-139.66445922851563},"ParticipantRotation":{"x":-0.011782304383814335,"y":0.9925259351730347,"z":0.09906202554702759,"w":-0.07028637081384659},"PointerPosition":{"x":-114.25904846191406,"y":-0.49922871589660647,"z":-139.89724731445313},"PointerRotation":{"x":353.44305419921877,"y":164.36546325683595,"z":7.457918643951416},"PointerRotationQuaternion":{"x":0.0565648078918457,"y":0.9874973297119141,"z":0.06536885350942612,"w":0.13181932270526887},"PointerDirection":{"x":0.26773759722709658,"y":0.1141904667019844,"z":-0.9567011594772339},"TargetBuildingName":"TaskBuilding_26","TargetBuildingPosition":{"x":87.63272094726563,"y":-0.7474174499511719,"z":42.919761657714847},"TargetBuildingRotation":{"x":0.0,"y":0.9338998794555664,"z":-2.086162567138672e-7,"w":0.3575346767902374},"TargetBuildingForward":{"x":0.667803168296814,"y":-3.896533939951041e-7,"z":-0.7443379163742065},"DistanceToParticipant":272.17193603515627,"PointedDirections":[{"x":0.26773759722709658,"y":0.1141904667019844,"z":-0.9567011594772339}]},
{"TrialNumber":58,"ImageIndexNumber":20,"ImageName":"11_CmA","TimeOut":false,"TimeStampBegin":1632409250.9155288,"TimeStampEnd":1632409253.7452088,"RT":2.8296799659729006,"Angle":136.13677978515626,"TriggerPressedFreq":2,"CancelPressedFreq":0,"PhotoToCenterFreq":0,"TriggerPressedTimeStamps":[1632409253.4788583],"CancelPressedTimeStamps":[],"PhotoToCenterTimeStamps":[],"PhotoReleasedTimeStamps":[],"ParticipantPosition":{"x":-114.27153015136719,"y":0.03812384605407715,"z":-139.653076171875},"ParticipantRotation":{"x":-0.03486181050539017,"y":0.9746655821800232,"z":0.10736611485481262,"w":0.19309137761592866},"PointerPosition":{"x":-114.60935974121094,"y":-0.5213019847869873,"z":-139.63995361328126},"PointerRotation":{"x":356.8476867675781,"y":259.94134521484377,"z":9.919020652770996},"PointerRotationQuaternion":{"x":-0.08383258432149887,"y":-0.7616876363754273,"z":0.03451450541615486,"w":0.6415705680847168},"PointerDirection":{"x":-0.9831396341323853,"y":0.0549904964864254,"z":-0.1743919402360916},"TargetBuildingName":"TaskBuilding_27","TargetBuildingPosition":{"x":60.14825439453125,"y":-0.742706298828125,"z":100.204833984375},"TargetBuildingRotation":{"x":-0.12068373709917069,"y":0.6967319846153259,"z":0.6967318654060364,"w":0.1206837147474289},"TargetBuildingForward":{"x":0.0,"y":0.9999998807907105,"z":-4.0978193283081057e-8},"DistanceToParticipant":296.50787353515627,"PointedDirections":[{"x":-0.9831396341323853,"y":0.0549904964864254,"z":-0.1743919402360916}]},
{"TrialNumber":59,"ImageIndexNumber":52,"ImageName":"27_CmA","TimeOut":false,"TimeStampBegin":1632409254.0120569,"TimeStampEnd":1632409258.7875458,"RT":4.77548885345459,"Angle":4.911590576171875,"TriggerPressedFreq":2,"CancelPressedFreq":0,"PhotoToCenterFreq":0,"TriggerPressedTimeStamps":[1632409258.4319139],"CancelPressedTimeStamps":[],"PhotoToCenterTimeStamps":[],"PhotoReleasedTimeStamps":[],"ParticipantPosition":{"x":-114.38584899902344,"y":0.03437495231628418,"z":-139.66323852539063},"ParticipantRotation":{"x":-0.05165867879986763,"y":-0.7804830074310303,"z":-0.05914006382226944,"w":0.6202259659767151},"PointerPosition":{"x":-114.59266662597656,"y":-0.5055608749389648,"z":-139.589111328125},"PointerRotation":{"x":352.35064697265627,"y":271.767578125,"z":9.936739921569825},"PointerRotationQuaternion":{"x":-0.10786185413599014,"y":-0.6878083944320679,"z":0.01577944867312908,"w":0.7176603674888611},"PointerDirection":{"x":-0.9906296730041504,"y":0.13310988247394563,"z":0.030570847913622857},"TargetBuildingName":"Crane_59","TargetBuildingPosition":{"x":-313.49945068359377,"y":1.6149444580078126,"z":-150.51466369628907},"TargetBuildingRotation":{"x":0.0,"y":0.1220962405204773,"z":-2.9802322387695315e-8,"w":0.9925183057785034},"TargetBuildingForward":{"x":0.2423655092716217,"y":-7.277503044633704e-9,"z":0.9701850414276123},"DistanceToParticipant":199.50083923339845,"PointedDirections":[{"x":-0.9906296730041504,"y":0.13310988247394563,"z":0.030570847913622857}]},
{"TrialNumber":60,"ImageIndexNumber":28,"ImageName":"15_CmA","TimeOut":false,"TimeStampBegin":1632409259.0543938,"TimeStampEnd":1632409261.453546,"RT":2.3991522789001467,"Angle":11.569058418273926,"TriggerPressedFreq":2,"CancelPressedFreq":0,"PhotoToCenterFreq":0,"TriggerPressedTimeStamps":[1632409261.1589225],"CancelPressedTimeStamps":[],"PhotoToCenterTimeStamps":[],"PhotoReleasedTimeStamps":[],"ParticipantPosition":{"x":-114.35029602050781,"y":0.04570269584655762,"z":-139.656982421875},"ParticipantRotation":{"x":-0.08848902583122254,"y":-0.715779185295105,"z":-0.0878475159406662,"w":0.6871045827865601},"PointerPosition":{"x":-114.41212463378906,"y":-0.5175107717514038,"z":-139.32699584960938},"PointerRotation":{"x":357.7430725097656,"y":339.9733581542969,"z":10.374778747558594},"PointerRotationQuaternion":{"x":-0.0350324772298336,"y":-0.17137780785560609,"z":0.08560854941606522,"w":0.9808534979820252},"PointerDirection":{"x":-0.342191219329834,"y":0.039380643516778949,"z":0.9388047456741333},"TargetBuildingName":"TaskBuilding_42","TargetBuildingPosition":{"x":-134.4729766845703,"y":0.9746377468109131,"z":-4.413402080535889},"TargetBuildingRotation":{"x":0.2995321750640869,"y":0.6405312418937683,"z":-0.6405314803123474,"w":0.29953229427337649},"TargetBuildingForward":{"x":2.9802322387695315e-8,"y":-1.0,"z":4.3213367462158205e-7},"DistanceToParticipant":136.63812255859376,"PointedDirections":[{"x":-0.342191219329834,"y":0.039380643516778949,"z":0.9388047456741333}]},
{"TrialNumber":61,"ImageIndexNumber":33,"ImageName":"17_CmANo","TimeOut":false,"TimeStampBegin":1632409262.687098,"TimeStampEnd":1632409268.1629389,"RT":5.47584080696106,"Angle":167.65664672851563,"TriggerPressedFreq":2,"CancelPressedFreq":0,"PhotoToCenterFreq":0,"TriggerPressedTimeStamps":[1632409267.6624747],"CancelPressedTimeStamps":[],"PhotoToCenterTimeStamps":[],"PhotoReleasedTimeStamps":[],"ParticipantPosition":{"x":257.79754638671877,"y":0.20483040809631349,"z":-32.64888000488281},"ParticipantRotation":{"x":-0.10128731280565262,"y":-0.18665575981140138,"z":-0.023324867710471154,"w":0.976911723613739},"PointerPosition":{"x":258.14605712890627,"y":-0.33978283405303957,"z":-32.69659423828125},"PointerRotation":{"x":356.1484069824219,"y":87.46214294433594,"z":7.8047051429748539},"PointerRotationQuaternion":{"x":0.022792361676692964,"y":0.6909347176551819,"z":0.07232575863599777,"w":0.718928873538971},"PointerDirection":{"x":0.9967628121376038,"y":0.0671725869178772,"z":0.04417942464351654},"TargetBuildingName":"TaskBuilding_52","TargetBuildingPosition":{"x":-247.203369140625,"y":2.4104766845703127,"z":54.642478942871097},"TargetBuildingRotation":{"x":0.0,"y":0.9983477592468262,"z":-2.086162567138672e-7,"w":0.057460784912109378},"TargetBuildingForward":{"x":0.11473169177770615,"y":-4.165431448654999e-7,"z":-0.993396520614624},"DistanceToParticipant":512.5403442382813,"PointedDirections":[{"x":0.9967628121376038,"y":0.0671725869178772,"z":0.04417942464351654}]},
{"TrialNumber":62,"ImageIndexNumber":16,"ImageName":"09_CmA","TimeOut":false,"TimeStampBegin":1632409268.4297879,"TimeStampEnd":1632409272.8813887,"RT":4.451600790023804,"Angle":42.85977554321289,"TriggerPressedFreq":2,"CancelPressedFreq":0,"PhotoToCenterFreq":0,"TriggerPressedTimeStamps":[1632409272.5480755],"CancelPressedTimeStamps":[],"PhotoToCenterTimeStamps":[],"PhotoReleasedTimeStamps":[],"ParticipantPosition":{"x":257.8885192871094,"y":0.20386505126953126,"z":-32.65934753417969},"ParticipantRotation":{"x":-0.07853425294160843,"y":0.6429972648620606,"z":0.05654285475611687,"w":0.7597301006317139},"PointerPosition":{"x":257.7207336425781,"y":-0.34406518936157229,"z":-32.959503173828128},"PointerRotation":{"x":357.403564453125,"y":204.71141052246095,"z":5.413384437561035},"PointerRotationQuaternion":{"x":-0.050960078835487369,"y":-0.9752687811851502,"z":-0.012004545889794827,"w":0.21473181247711183},"PointerDirection":{"x":-0.4176189601421356,"y":0.04530081897974014,"z":-0.9074922800064087},"TargetBuildingName":"TaskBuilding_45","TargetBuildingPosition":{"x":-153.3925018310547,"y":-2.5143280029296877,"z":-202.64996337890626},"TargetBuildingRotation":{"x":0.0,"y":0.26263874769210818,"z":-7.450580596923828e-8,"w":0.9648942947387695},"TargetBuildingForward":{"x":0.5068372488021851,"y":-3.9136224927460719e-8,"z":0.8620417714118958},"DistanceToParticipant":444.99859619140627,"PointedDirections":[{"x":-0.4176189601421356,"y":0.04530081897974014,"z":-0.9074922800064087}]},
{"TrialNumber":63,"ImageIndexNumber":93,"ImageName":"47_SaNo","TimeOut":false,"TimeStampBegin":1632409273.1477409,"TimeStampEnd":1632409275.595996,"RT":2.4482550621032717,"Angle":14.794261932373047,"TriggerPressedFreq":2,"CancelPressedFreq":0,"PhotoToCenterFreq":0,"TriggerPressedTimeStamps":[1632409275.2785559],"CancelPressedTimeStamps":[],"PhotoToCenterTimeStamps":[],"PhotoReleasedTimeStamps":[],"ParticipantPosition":{"x":257.8681945800781,"y":0.20727133750915528,"z":-32.74183654785156},"ParticipantRotation":{"x":0.01336438674479723,"y":0.9750192761421204,"z":0.13230584561824799,"w":-0.1779155433177948},"PointerPosition":{"x":257.5558776855469,"y":-0.3454946279525757,"z":-32.718902587890628},"PointerRotation":{"x":357.2245788574219,"y":264.99969482421877,"z":5.007291793823242},"PointerRotationQuaternion":{"x":-0.04854263737797737,"y":-0.7356445789337158,"z":0.011664902791380883,"w":0.675525426864624},"PointerDirection":{"x":-0.9950257539749146,"y":0.04842112585902214,"z":-0.08705861866474152},"TargetBuildingName":"TaskBuilding_36","TargetBuildingPosition":{"x":-52.68944549560547,"y":-3.524444580078125,"z":-144.3808135986328},"TargetBuildingRotation":{"x":0.0,"y":0.937308669090271,"z":-1.4901161193847657e-7,"w":-0.3485003709793091},"TargetBuildingForward":{"x":-0.6533048152923584,"y":-2.7933975843552619e-7,"z":-0.7570950984954834},"DistanceToParticipant":330.035888671875,"PointedDirections":[{"x":-0.9950257539749146,"y":0.04842112585902214,"z":-0.08705861866474152}]},
{"TrialNumber":64,"ImageIndexNumber":19,"ImageName":"10_CmANo","TimeOut":false,"TimeStampBegin":1632409275.8742524,"TimeStampEnd":1632409278.2367008,"RT":2.3624484539031984,"Angle":34.75430679321289,"TriggerPressedFreq":2,"CancelPressedFreq":0,"PhotoToCenterFreq":0,"TriggerPressedTimeStamps":[1632409277.970348],"CancelPressedTimeStamps":[],"PhotoToCenterTimeStamps":[],"PhotoReleasedTimeStamps":[],"ParticipantPosition":{"x":257.8038635253906,"y":0.20455336570739747,"z":-32.73698425292969},"ParticipantRotation":{"x":-0.057079628109931949,"y":-0.767159640789032,"z":-0.08851758390665055,"w":0.6327500939369202},"PointerPosition":{"x":257.5827941894531,"y":-0.33207666873931887,"z":-32.5673828125},"PointerRotation":{"x":351.978759765625,"y":298.6341247558594,"z":8.783605575561524},"PointerRotationQuaternion":{"x":-0.09895355999469757,"y":-0.5029365420341492,"z":0.030109329149127008,"w":0.8581122159957886},"PointerDirection":{"x":-0.8691108226776123,"y":0.13954035937786103,"z":0.4745260775089264},"TargetBuildingName":"TaskBuilding_8","TargetBuildingPosition":{"x":-311.34130859375,"y":1.2716522216796876,"z":-93.57064056396485},"TargetBuildingRotation":{"x":-0.5039759874343872,"y":0.4959922432899475,"z":0.4959922134876251,"w":0.5039757490158081},"TargetBuildingForward":{"x":-2.086162567138672e-7,"y":0.9999998807907105,"z":-1.7881393432617188e-7},"DistanceToParticipant":572.4414672851563,"PointedDirections":[{"x":-0.8691108226776123,"y":0.13954035937786103,"z":0.4745260775089264}]},
{"TrialNumber":65,"ImageIndexNumber":36,"ImageName":"19_CmA","TimeOut":false,"TimeStampBegin":1632409278.5179325,"TimeStampEnd":1632409281.3049577,"RT":2.787025213241577,"Angle":29.767559051513673,"TriggerPressedFreq":2,"CancelPressedFreq":0,"PhotoToCenterFreq":0,"TriggerPressedTimeStamps":[1632409280.9056783],"CancelPressedTimeStamps":[],"PhotoToCenterTimeStamps":[],"PhotoReleasedTimeStamps":[],"ParticipantPosition":{"x":257.7968444824219,"y":0.20337891578674317,"z":-32.70442199707031},"ParticipantRotation":{"x":-0.07555428892374039,"y":-0.5849286317825317,"z":-0.06921050697565079,"w":0.8045868277549744},"PointerPosition":{"x":257.72943115234377,"y":-0.325455904006958,"z":-32.43791198730469},"PointerRotation":{"x":348.7915954589844,"y":329.67633056640627,"z":9.636286735534668},"PointerRotationQuaternion":{"x":-0.11578676849603653,"y":-0.25145941972732546,"z":0.05523085221648216,"w":0.9593285322189331},"PointerDirection":{"x":-0.49525439739227297,"y":0.19437846541404725,"z":0.8467231392860413},"TargetBuildingName":"TaskBuilding_34","TargetBuildingPosition":{"x":-36.169708251953128,"y":0.444427490234375,"z":136.62149047851563},"TargetBuildingRotation":{"x":-2.9802322387695315e-8,"y":0.559095025062561,"z":-1.1920928955078126e-7,"w":0.8291035890579224},"TargetBuildingForward":{"x":0.9270954132080078,"y":-8.388021655036937e-8,"z":0.37482547760009768},"DistanceToParticipant":339.245361328125,"PointedDirections":[{"x":-0.49525439739227297,"y":0.19437846541404725,"z":0.8467231392860413}]},
{"TrialNumber":66,"ImageIndexNumber":10,"ImageName":"06_CmA","TimeOut":false,"TimeStampBegin":1632409281.5703173,"TimeStampEnd":1632409287.0967506,"RT":5.526433229446411,"Angle":135.2266845703125,"TriggerPressedFreq":2,"CancelPressedFreq":0,"PhotoToCenterFreq":0,"TriggerPressedTimeStamps":[1632409286.7748459],"CancelPressedTimeStamps":[],"PhotoToCenterTimeStamps":[],"PhotoReleasedTimeStamps":[],"ParticipantPosition":{"x":257.79681396484377,"y":0.19838500022888184,"z":-32.67572021484375},"ParticipantRotation":{"x":-0.06504406780004502,"y":-0.29715654253959658,"z":-0.025220533832907678,"w":0.952276885509491},"PointerPosition":{"x":257.99652099609377,"y":-0.3204113245010376,"z":-32.4610595703125},"PointerRotation":{"x":350.18109130859377,"y":20.102025985717775,"z":9.051786422729493},"PointerRotationQuaternion":{"x":-0.07028399407863617,"y":0.1799919605255127,"z":0.09230300784111023,"w":0.9768025279045105},"PointerDirection":{"x":0.33865833282470705,"y":0.17053475975990296,"z":0.9253261089324951},"TargetBuildingName":"TaskBuilding_20","TargetBuildingPosition":{"x":184.2935333251953,"y":-2.906982421875,"z":-67.02474212646485},"TargetBuildingRotation":{"x":4.470348358154297e-8,"y":0.9437062740325928,"z":-2.384185791015625e-7,"w":0.33078452944755556},"TargetBuildingForward":{"x":0.6243268847465515,"y":-4.795686550096434e-7,"z":-0.7811630964279175},"DistanceToParticipant":81.21046447753906,"PointedDirections":[{"x":0.33865833282470705,"y":0.17053475975990296,"z":0.9253261089324951}]},
